File: Daten/20190815_Fe_E3_ORR_after.txt
Index	Potential applied (V)	Time (s)	WE(1).Current (A)	WE(2).Current (A)	Scan	WE(1).Potential (V)
1	0.0505066	22.9665	-0.00132294	3.33649e-05	1
14	0.0564575	24.1567	-0.00127136	3.37341e-05	1
27	0.0624084	25.3469	-0.00126617	3.3902e-05	1
40	0.0683594	26.5371	-0.00125427	3.40485e-05	1
53	0.0743103	27.7273	-0.00125061	3.3963e-05	1
66	0.0802612	28.9175	-0.00124725	3.45062e-05	1
79	0.0862122	30.1076	-0.00124725	3.45428e-05	1
92	0.0921631	31.2978	-0.0012381	3.4668e-05	1
105	0.098114	32.488	-0.00123535	3.4552e-05	1
118	0.104065	33.6782	-0.00123383	3.49762e-05	1
131	0.110016	34.8684	-0.00123291	3.50739e-05	1
144	0.115967	36.0586	-0.00122253	3.51624e-05	1
157	0.121918	37.2488	-0.00122131	3.52295e-05	1
170	0.127869	38.439	-0.00122192	3.55103e-05	1
183	0.13382	39.6292	-0.00121735	3.56964e-05	1
196	0.139771	40.8194	-0.00121124	3.57483e-05	1
209	0.145721	42.0095	-0.00120972	3.61328e-05	1
222	0.151672	43.1997	-0.00121002	3.61023e-05	1
235	0.157623	44.3899	-0.00120239	3.60016e-05	1
248	0.163574	45.5801	-0.00119843	3.62427e-05	1
261	0.169525	46.7703	-0.0011972	3.64716e-05	1
274	0.175476	47.9605	-0.00119629	3.68652e-05	1
287	0.181427	49.1507	-0.00118713	3.70239e-05	1
300	0.187378	50.3409	-0.00118683	3.68103e-05	1
313	0.193329	51.5311	-0.0011853	3.76068e-05	1
326	0.19928	52.7212	-0.00118134	3.75458e-05	1
339	0.205231	53.9114	-0.0011734	3.75488e-05	1
352	0.211182	55.1016	-0.00117157	3.76617e-05	1
365	0.217133	56.2918	-0.00117279	3.80157e-05	1
378	0.223083	57.482	-0.00116364	3.83606e-05	1
391	0.229034	58.6722	-0.00116119	3.82599e-05	1
404	0.234985	59.8624	-0.00115906	3.85284e-05	1
417	0.240936	61.0526	-0.00115509	3.89557e-05	1
430	0.246887	62.2428	-0.00114716	3.90106e-05	1
443	0.252838	63.4329	-0.00114594	3.92578e-05	1
456	0.258789	64.6231	-0.00114563	3.96179e-05	1
469	0.26474	65.8133	-0.00113647	3.99719e-05	1
482	0.270691	67.0035	-0.00113373	3.96362e-05	1
495	0.276642	68.1937	-0.00113159	4.02496e-05	1
508	0.282593	69.3839	-0.00112671	4.05518e-05	1
521	0.288544	70.5741	-0.00111786	4.03442e-05	1
534	0.294495	71.7643	-0.00111694	4.08661e-05	1
547	0.300446	72.9545	-0.00111572	4.10736e-05	1
560	0.306396	74.1446	-0.00110504	4.140625E-05	1
573	0.312347	75.3348	-0.00110199	4.11926e-05	1
586	0.318298	76.525	-0.00109894	4.16626e-05	1
599	0.324249	77.7152	-0.0010965	4.18518e-05	1
612	0.3302	78.9054	-0.00108582	4.22028e-05	1
625	0.336151	80.0956	-0.00108337	4.21753e-05	1
638	0.342102	81.2858	-0.00108154	4.23584e-05	1
651	0.348053	82.476	-0.00107422	4.25995e-05	1
664	0.354004	83.6662	-0.00106567	4.25903e-05	1
677	0.359955	84.8563	-0.00106323	4.28589e-05	1
690	0.365906	86.0465	-0.00106079	4.29993e-05	1
703	0.371857	87.2367	-0.00105194	4.31213e-05	1
716	0.377808	88.4269	-0.00104492	4.31671e-05	1
729	0.383759	89.6171	-0.00104218	4.35242e-05	1
742	0.389709	90.8073	-0.00103821	4.35211e-05	1
755	0.39566	91.9975	-0.0010257	4.41864e-05	1
768	0.401611	93.1877	-0.00102356	4.42017e-05	1
781	0.407562	94.3779	-0.0010199	4.40796e-05	1
794	0.413513	95.568	-0.00101074	4.47388e-05	1
807	0.419464	96.7582	-0.0010022	4.45038e-05	1
820	0.425415	97.9484	-0.000997009	4.47113e-05	1
833	0.431366	99.1386	-0.000993042	4.50043e-05	1
846	0.437317	100.329	-0.000982361	4.52881e-05	1
859	0.443268	101.519	-0.000975342	4.45343e-05	1
872	0.449219	102.709	-0.000969849	4.52759e-05	1
885	0.45517	103.899	-0.00096283	4.55627e-05	1
898	0.461121	105.09	-0.000952454	4.53491e-05	1
911	0.467072	106.28	-0.000945129	4.57764e-05	1
924	0.473022	107.47	-0.000939941	4.54407e-05	1
937	0.478973	108.66	-0.000926819	4.57458e-05	1
950	0.484924	109.85	-0.00092041	4.55353e-05	1
963	0.490875	111.041	-0.000915222	4.58984e-05	1
976	0.496826	112.231	-0.000904541	4.58374e-05	1
989	0.502777	113.421	-0.000894165	4.56238e-05	1
1002	0.508728	114.611	-0.000887451	4.55627e-05	1
1015	0.514679	115.801	-0.000881042	4.52454e-05	1
1028	0.52063	116.991	-0.00086792	4.51721e-05	1
1041	0.526581	118.182	-0.000859985	4.48364e-05	1
1054	0.532532	119.372	-0.000852051	4.47693e-05	1
1067	0.538483	120.562	-0.000841064	4.47388e-05	1
1080	0.544434	121.752	-0.000827942	4.42322e-05	1
1093	0.550385	122.942	-0.000818481	4.38232e-05	1
1106	0.556335	124.133	-0.000809326	4.31763e-05	1
1119	0.562286	125.323	-0.000792847	4.28284e-05	1
1132	0.568237	126.513	-0.000782166	4.2746e-05	1
1145	0.574188	127.703	-0.0007724	4.23645e-05	1
1158	0.580139	128.893	-0.000756531	4.17328e-05	1
1171	0.58609	130.084	-0.000742798	4.13422e-05	1
1184	0.592041	131.274	-0.000730896	4.07013e-05	1
1197	0.597992	132.464	-0.000715637	3.98407e-05	1
1210	0.603943	133.654	-0.000697937	3.93311e-05	1
1223	0.609894	134.844	-0.000684814	3.86353e-05	1
1236	0.615845	136.034	-0.00066925	3.80219e-05	1
1249	0.621796	137.225	-0.000649414	3.70117e-05	1
1262	0.627747	138.415	-0.00063324	3.62244e-05	1
1275	0.633698	139.605	-0.000617371	3.5257e-05	1
1288	0.639648	140.795	-0.000596008	3.4491e-05	1
1301	0.645599	141.985	-0.000576172	3.33588e-05	1
1314	0.65155	143.176	-0.000557556	3.22815e-05	1
1327	0.657501	144.366	-0.000537415	3.12469e-05	1
1340	0.663452	145.556	-0.000513916	3.02551e-05	1
1353	0.669403	146.746	-0.000492004	2.87018e-05	1
1366	0.675354	147.936	-0.00047052	2.78168e-05	1
1379	0.681305	149.127	-0.000446533	2.6532e-05	1
1392	0.687256	150.317	-0.000421173	2.52228e-05	1
1405	0.693207	151.507	-0.0003974	2.40631e-05	1
1418	0.699158	152.697	-0.000373199	2.25922e-05	1
1431	0.705109	153.887	-0.000346771	2.12921e-05	1
1444	0.71106	155.077	-0.00032016	1.98303e-05	1
1457	0.71701	156.268	-0.000294739	1.85822e-05	1
1470	0.722961	157.458	-0.000268982	1.73584e-05	1
1483	0.728912	158.648	-0.000242126	1.60156e-05	1
1496	0.734863	159.838	-0.000216187	1.47186e-05	1
1509	0.740814	161.028	-0.000190979	1.35834e-05	1
1522	0.746765	162.219	-0.000165649	1.23413e-05	1
1535	0.752716	163.409	-0.000141205	1.11786e-05	1
1548	0.758667	164.599	-0.000117676	1.01898e-05	1
1561	0.764618	165.789	-9.55505e-05	9.17969e-06	1
1574	0.770569	166.979	-7.42798e-05	8.25806e-06	1
1587	0.77652	168.17	-5.39551e-05	7.46765e-06	1
1600	0.782471	169.36	-3.57758e-05	6.73828e-06	1
1613	0.788422	170.55	-1.90643e-05	6.08215e-06	1
1626	0.794373	171.74	-4.19922e-06	5.5542e-06	1
1639	0.800323	172.93	9.37195e-06	5.11475e-06	1
1652	0.806274	174.121	2.12708e-05	4.776e-06	1
1665	0.812225	175.311	3.13049e-05	4.39758e-06	1
1678	0.818176	176.501	3.99872e-05	4.22363e-06	1
1691	0.824127	177.691	4.73328e-05	3.9856e-06	1
1704	0.830078	178.881	5.32532e-05	3.82996e-06	1
1717	0.836029	180.071	5.87769e-05	3.75061e-06	1
1730	0.84198	181.262	6.26831e-05	3.59497e-06	1
1743	0.847931	182.452	6.604e-05	3.57056e-06	1
1756	0.853882	183.642	6.88782e-05	3.53088e-06	1
1769	0.859833	184.832	7.07703e-05	3.4729e-06	1
1782	0.865784	186.022	7.26013e-05	3.39661e-06	1
1795	0.871735	187.213	7.41577e-05	3.41187e-06	1
1808	0.877686	188.403	7.55615e-05	3.42712e-06	1
1821	0.883636	189.593	7.60498e-05	3.37219e-06	1
1834	0.889587	190.783	7.67517e-05	3.33862e-06	1
1847	0.895538	191.973	7.78503e-05	3.34167e-06	1
1860	0.901489	193.164	7.8064e-05	3.30811e-06	1
1873	0.90744	194.354	7.85217e-05	3.302e-06	1
1886	0.913391	195.544	7.91321e-05	3.27759e-06	1
1899	0.919342	196.734	7.94678e-05	3.25012e-06	1
1912	0.925293	197.924	7.97729e-05	3.32336e-06	1
1925	0.931244	199.114	7.98035e-05	3.25317e-06	1
1938	0.937195	200.305	8.04749e-05	3.21655e-06	1
1951	0.943146	201.495	8.09021e-05	3.22571e-06	1
1964	0.949097	202.685	8.07495e-05	3.16467e-06	1
1977	0.955048	203.875	8.15125e-05	3.20435e-06	1
1990	0.960999	205.065	8.21533e-05	3.14941e-06	1
2003	0.966949	206.256	8.19397e-05	3.13416e-06	1
2016	0.9729	207.446	8.28857e-05	3.12195e-06	1
2029	0.978851	208.636	8.34961e-05	3.12805e-06	1
2042	0.984802	209.826	8.42896e-05	3.09753e-06	1
2055	0.990753	211.016	8.44421e-05	3.07617e-06	1
2068	0.996704	212.207	8.53577e-05	3.07007e-06	1
2081	1.00266	213.397	8.65173e-05	3.04565e-06	1
2094	1.00861	214.587	8.68835e-05	3.09448e-06	1
2107	1.01456	215.777	8.75854e-05	3.06396e-06	1
2120	1.02051	216.967	8.87451e-05	3.07312e-06	1
2133	1.02646	218.158	8.97217e-05	3.06091e-06	1
2146	1.03241	219.348	9.04846e-05	2.99072e-06	1
2159	1.03836	220.538	9.14001e-05	2.99988e-06	1
2172	1.04431	221.728	9.2804e-05	2.9541e-06	1
2185	1.05026	222.918	9.45435e-05	3.02124e-06	1
2198	1.04431	224.108	-2.51465e-06	2.95105e-06	1
2211	1.03836	225.299	-1.51245e-05	2.96021e-06	1
2224	1.03241	226.489	-1.96198e-05	2.97852e-06	1
2237	1.02646	227.679	-2.68127e-05	2.96936e-06	1
2250	1.02051	228.869	-2.99255e-05	2.96631e-06	1
2263	1.01456	230.059	-3.25378e-05	2.98157e-06	1
2276	1.00861	231.25	-3.46771e-05	2.96021e-06	1
2289	1.00266	232.44	-3.62915e-05	3.01208e-06	1
2302	0.996704	233.63	-3.76831e-05	2.98462e-06	1
2315	0.990753	234.82	-3.89832e-05	3.00598e-06	1
2328	0.984802	236.01	-3.99475e-05	2.99988e-06	1
2341	0.978851	237.201	-4.11285e-05	3.0365e-06	1
2354	0.9729	238.391	-4.16473e-05	3.02429e-06	1
2367	0.966949	239.581	-4.26544e-05	3.05176e-06	1
2380	0.960999	240.771	-4.36279e-05	3.0365e-06	1
2393	0.955048	241.961	-4.42017e-05	3.0426e-06	1
2406	0.949097	243.151	-4.48303e-05	3.05176e-06	1
2419	0.943146	244.342	-4.56848e-05	3.06091e-06	1
2432	0.937195	245.532	-4.73938e-05	3.0426e-06	1
2445	0.931244	246.722	-4.73938e-05	3.08533e-06	1
2458	0.925293	247.912	-4.76685e-05	3.14331e-06	1
2471	0.919342	249.102	-4.88892e-05	3.11279e-06	1
2484	0.913391	250.293	-4.92554e-05	3.13416e-06	1
2497	0.90744	251.483	-5.01709e-05	3.16162e-06	1
2510	0.901489	252.673	-5.14526e-05	3.15552e-06	1
2523	0.895538	253.863	-5.25818e-05	3.14941e-06	1
2536	0.889587	255.053	-5.34668e-05	3.2074e-06	1
2549	0.883636	256.244	-5.49622e-05	3.18909e-06	1
2562	0.877686	257.434	-5.6366e-05	3.19824e-06	1
2575	0.871735	258.624	-5.81055e-05	3.26538e-06	1
2588	0.865784	259.814	-5.97534e-05	3.25012e-06	1
2601	0.859833	261.004	-6.20728e-05	3.302e-06	1
2614	0.853882	262.195	-6.48499e-05	3.35083e-06	1
2627	0.847931	263.385	-6.77185e-05	3.2959e-06	1
2640	0.84198	264.575	-7.11975e-05	3.39966e-06	1
2653	0.836029	265.765	-7.53479e-05	3.45154e-06	1
2666	0.830078	266.955	-8.05664e-05	3.54614e-06	1
2679	0.824127	268.145	-8.63342e-05	3.60107e-06	1
2692	0.818176	269.336	-9.28955e-05	3.79944e-06	1
2705	0.812225	270.526	-0.000100891	4.00696e-06	1
2718	0.806274	271.716	-0.000110992	4.18396e-06	1
2731	0.800323	272.906	-0.000121399	4.54102e-06	1
2744	0.794373	274.096	-0.000134033	4.8584e-06	1
2757	0.788422	275.287	-0.000148529	5.34973e-06	1
2770	0.782471	276.477	-0.000164734	5.91431e-06	1
2783	0.77652	277.667	-0.000181671	6.52466e-06	1
2796	0.770569	278.857	-0.000201019	7.36084e-06	1
2809	0.764618	280.047	-0.000223022	8.20618e-06	1
2822	0.758667	281.238	-0.000244751	9.09424e-06	1
2835	0.752716	282.428	-0.000268066	1.01807e-05	1
2848	0.746765	283.618	-0.000292999	1.13983e-05	1
2861	0.740814	284.808	-0.000319855	1.25885e-05	1
2874	0.734863	285.998	-0.000345245	1.38306e-05	1
2887	0.728912	287.188	-0.000371429	1.52466e-05	1
2900	0.722961	288.379	-0.000399323	1.6626e-05	1
2913	0.71701	289.569	-0.000428192	1.80542e-05	1
2926	0.71106	290.759	-0.000453369	1.9397e-05	1
2939	0.705109	291.949	-0.000481018	2.08588e-05	1
2952	0.699158	293.139	-0.000509338	2.23877e-05	1
2965	0.693207	294.33	-0.000536499	2.37335e-05	1
2978	0.687256	295.52	-0.000560913	2.51373e-05	1
2991	0.681305	296.71	-0.000587158	2.64496e-05	1
3004	0.675354	297.9	-0.000614014	2.82318e-05	1
3017	0.669403	299.09	-0.000639954	2.93915e-05	1
3030	0.663452	300.281	-0.000661621	3.03192e-05	1
3043	0.657501	301.471	-0.00068512	3.23181e-05	1
3056	0.65155	302.661	-0.000709229	3.35724e-05	1
3069	0.645599	303.851	-0.000732117	3.46191e-05	1
3082	0.639648	305.041	-0.000751038	3.58826e-05	1
3095	0.633698	306.231	-0.00077179	3.6969e-05	1
3108	0.627747	307.422	-0.000794067	3.82324e-05	1
3121	0.621796	308.612	-0.000811768	3.91022e-05	1
3134	0.615845	309.802	-0.000827942	4.02557e-05	1
3147	0.609894	310.992	-0.000847778	4.13361e-05	1
3160	0.603943	312.182	-0.000866089	4.21478e-05	1
3173	0.597992	313.373	-0.000878601	4.26025e-05	1
3186	0.592041	314.563	-0.000894165	4.38446e-05	1
3199	0.58609	315.753	-0.000910645	4.44458e-05	1
3212	0.580139	316.943	-0.000927429	4.53003e-05	1
3225	0.574188	318.133	-0.000936584	4.58679e-05	1
3238	0.568237	319.324	-0.000950012	4.64478e-05	1
3251	0.562286	320.514	-0.000964355	4.72717e-05	1
3264	0.556335	321.704	-0.000979004	4.80347e-05	1
3277	0.550385	322.894	-0.000986633	4.82483e-05	1
3290	0.544434	324.084	-0.000997925	4.87976e-05	1
3303	0.538483	325.275	-0.00101105	4.9408e-05	1
3316	0.532532	326.465	-0.00102264	4.97742e-05	1
3329	0.526581	327.655	-0.00102814	5.00793e-05	1
3342	0.52063	328.845	-0.00103882	5.01709e-05	1
3355	0.514679	330.035	-0.00105011	5.078125E-05	1
3368	0.508728	331.225	-0.00105957	5.09033e-05	1
3381	0.502777	332.416	-0.00106476	5.10559e-05	1
3394	0.496826	333.606	-0.00107452	5.17273e-05	1
3407	0.490875	334.796	-0.00108643	5.18494e-05	1
3420	0.484924	335.986	-0.00109161	5.15137e-05	1
3433	0.478973	337.176	-0.00109741	5.19409e-05	1
3446	0.473022	338.367	-0.00110687	5.21851e-05	1
3459	0.467072	339.557	-0.00111725	5.21851e-05	1
3472	0.461121	340.747	-0.0011203	5.22156e-05	1
3485	0.45517	341.937	-0.00112732	5.17578e-05	1
3498	0.449219	343.127	-0.00113617	5.22766e-05	1
3511	0.443268	344.318	-0.00114471	5.22156e-05	1
3524	0.437317	345.508	-0.00114624	5.19104e-05	1
3537	0.431366	346.698	-0.00115387	5.21545e-05	1
3550	0.425415	347.888	-0.00116272	5.22461e-05	1
3563	0.419464	349.078	-0.00116882	5.20935e-05	1
3576	0.413513	350.268	-0.00117035	5.16357e-05	1
3589	0.407562	351.459	-0.00117706	5.17883e-05	1
3602	0.401611	352.649	-0.00118469	5.18494e-05	1
3615	0.39566	353.839	-0.00119232	5.17273e-05	1
3628	0.389709	355.029	-0.0011969	5.15137e-05	1
3641	0.383759	356.219	-0.00119781	5.12085e-05	1
3654	0.377808	357.41	-0.00120483	5.1239e-05	1
3667	0.371857	358.6	-0.00121246	5.15747e-05	1
3680	0.365906	359.79	-0.0012204	5.14832e-05	1
3693	0.359955	360.98	-0.00122131	5.16968e-05	1
3706	0.354004	362.17	-0.00122528	5.12695e-05	1
3719	0.348053	363.361	-0.00123199	5.14526e-05	1
3732	0.342102	364.551	-0.00124054	5.13611e-05	1
3745	0.336151	365.741	-0.00124725	5.12085e-05	1
3758	0.3302	366.931	-0.00124756	5.08728e-05	1
3771	0.324249	368.121	-0.00125244	5.07202e-05	1
3784	0.318298	369.312	-0.00125824	5.06592e-05	1
3797	0.312347	370.502	-0.00126678	4.99878e-05	1
3810	0.306396	371.692	-0.0012677	5.02319e-05	1
3823	0.300446	372.882	-0.00126801	5.00793e-05	1
3836	0.294495	374.072	-0.00127472	5.00183e-05	1
3849	0.288544	375.262	-0.00128082	4.98352e-05	1
3862	0.282593	376.453	-0.00128296	4.96826e-05	1
3875	0.276642	377.643	-0.00128296	4.94995e-05	1
3888	0.270691	378.833	-0.00128845	4.92554e-05	1
3901	0.26474	380.023	-0.00129578	4.88281e-05	1
3914	0.258789	381.213	-0.00129852	4.90417e-05	1
3927	0.252838	382.404	-0.00129883	4.87671e-05	1
3940	0.246887	383.594	-0.00130341	4.8645e-05	1
3953	0.240936	384.784	-0.00131104	4.83704e-05	1
3966	0.234985	385.974	-0.00131104	4.82178e-05	1
3979	0.229034	387.164	-0.00131317	4.79736e-05	1
3992	0.223083	388.355	-0.00131897	4.79126e-05	1
4005	0.217133	389.545	-0.00132385	4.80347e-05	1
4018	0.211182	390.735	-0.00132111	4.7699e-05	1
4031	0.205231	391.925	-0.00132629	4.73938e-05	1
4044	0.19928	393.115	-0.00133148	4.72717e-05	1
4057	0.193329	394.305	-0.00133392	4.71497e-05	1
4070	0.187378	395.496	-0.00133301	4.67529e-05	1
4083	0.181427	396.686	-0.0013385	4.66919e-05	1
4096	0.175476	397.876	-0.00134308	4.65393e-05	1
4109	0.169525	399.066	-0.00134674	4.63867e-05	1
4122	0.163574	400.256	-0.00134399	4.63562e-05	1
4135	0.157623	401.447	-0.00134827	4.5929e-05	1
4148	0.151672	402.637	-0.00135376	4.57764e-05	1
4161	0.145721	403.827	-0.00135803	4.58374e-05	1
4174	0.139771	405.017	-0.00135559	4.55627e-05	1
4187	0.13382	406.207	-0.00135895	4.53796e-05	1
4200	0.127869	407.398	-0.00136566	4.53186e-05	1
4213	0.121918	408.588	-0.00136627	4.5105e-05	1
4226	0.115967	409.778	-0.00136688	4.46777e-05	1
4239	0.110016	410.968	-0.00137085	4.49127e-05	1
4252	0.104065	412.158	-0.00137634	4.46838e-05	1
4265	0.098114	413.349	-0.00137421	4.46777e-05	1
4278	0.0921631	414.539	-0.00137817	4.44855e-05	1
4291	0.0862122	415.729	-0.00138184	4.422e-05	1
4304	0.0802612	416.919	-0.0013855	4.43054e-05	1
4317	0.0743103	418.109	-0.00138214	4.40582e-05	1
4330	0.0683594	419.299	-0.00138733	4.39758e-05	1
4343	0.0624084	420.49	-0.0013913	4.39148e-05	1
4356	0.0564575	421.68	-0.00139587	4.38812e-05	1
4369	0.0505066	422.87	-0.00139404	4.38049e-05	1
4382	0.055542	424.06	-0.00126648	4.37927e-05	2
4395	0.0614929	425.25	-0.00124725	4.39087e-05	2
4408	0.0674438	426.441	-0.00123962	4.41803e-05	2
4421	0.0733948	427.631	-0.00122986	4.42505e-05	2
4434	0.0793457	428.821	-0.00122406	4.43573e-05	2
4447	0.0852966	430.011	-0.00122162	4.48242e-05	2
4460	0.0912476	431.201	-0.00122009	4.4928e-05	2
4473	0.0971985	432.392	-0.00121399	4.50623e-05	2
4486	0.103149	433.582	-0.00120911	4.5105e-05	2
4499	0.1091	434.772	-0.00120575	4.55627e-05	2
4512	0.115051	435.962	-0.00120636	4.57153e-05	2
4525	0.121002	437.152	-0.00120026	4.5874e-05	2
4538	0.126953	438.342	-0.00119537	4.599e-05	2
4551	0.132904	439.533	-0.00119385	4.65088e-05	2
4564	0.138855	440.723	-0.00119324	4.64478e-05	2
4577	0.144806	441.913	-0.00118652	4.67529e-05	2
4590	0.150757	443.103	-0.00118286	4.66919e-05	2
4603	0.156708	444.293	-0.00118134	4.70886e-05	2
4616	0.162659	445.484	-0.00118134	4.73022e-05	2
4629	0.16861	446.674	-0.0011731	4.73938e-05	2
4642	0.174561	447.864	-0.00117065	4.74243e-05	2
4655	0.180511	449.054	-0.00116791	4.80347e-05	2
4668	0.186462	450.244	-0.00116608	4.81262e-05	2
4681	0.192413	451.435	-0.00115814	4.84619e-05	2
4694	0.198364	452.625	-0.00115662	4.85229e-05	2
4707	0.204315	453.815	-0.00115631	4.87671e-05	2
4720	0.210266	455.005	-0.00115051	4.89807e-05	2
4733	0.216217	456.195	-0.00114502	4.90112e-05	2
4746	0.222168	457.385	-0.00114258	4.93164e-05	2
4759	0.228119	458.576	-0.00114166	4.96521e-05	2
4772	0.23407	459.766	-0.00113525	4.98962e-05	2
4785	0.240021	460.956	-0.00112854	5.00793e-05	2
4798	0.245972	462.146	-0.00112671	5.02319e-05	2
4811	0.251923	463.336	-0.00112488	5.06287e-05	2
4824	0.257874	464.527	-0.00112	5.09949e-05	2
4837	0.263824	465.717	-0.00111481	5.09949e-05	2
4850	0.269775	466.907	-0.00110931	5.11169e-05	2
4863	0.275726	468.097	-0.00110779	5.16357e-05	2
4876	0.281677	469.287	-0.00110474	5.19104e-05	2
4889	0.287628	470.478	-0.00109741	5.20325e-05	2
4902	0.293579	471.668	-0.00109283	5.20935e-05	2
4915	0.29953	472.858	-0.00109161	5.2887e-05	2
4928	0.305481	474.048	-0.00108765	5.2887e-05	2
4941	0.311432	475.238	-0.0010791	5.2948e-05	2
4954	0.317383	476.429	-0.00107422	5.28564e-05	2
4967	0.323334	477.619	-0.00107239	5.36194e-05	2
4980	0.329285	478.809	-0.00106873	5.39856e-05	2
4993	0.335236	479.999	-0.00105957	5.40771e-05	2
5006	0.341187	481.189	-0.0010556	5.45654e-05	2
5019	0.347137	482.379	-0.00105011	5.45349e-05	2
5032	0.353088	483.57	-0.00104706	5.47485e-05	2
5045	0.359039	484.76	-0.00103973	5.48401e-05	2
5058	0.36499	485.95	-0.0010321	5.50842e-05	2
5071	0.370941	487.14	-0.00102875	5.53589e-05	2
5084	0.376892	488.33	-0.00102478	5.55725e-05	2
5097	0.382843	489.521	-0.00101807	5.57556e-05	2
5110	0.388794	490.711	-0.00100952	5.59387e-05	2
5123	0.394745	491.901	-0.00100464	5.59082e-05	2
5136	0.400696	493.091	-0.00100006	5.60913e-05	2
5149	0.406647	494.281	-0.000995178	5.6427e-05	2
5162	0.412598	495.472	-0.000986938	5.65796e-05	2
5175	0.418549	496.662	-0.000978394	5.62439e-05	2
5188	0.4245	497.852	-0.000973206	5.65796e-05	2
5201	0.43045	499.042	-0.000967102	5.70374e-05	2
5214	0.436401	500.232	-0.000960388	5.68848e-05	2
5227	0.442352	501.422	-0.000951233	5.67627e-05	2
5240	0.448303	502.613	-0.000942993	5.65491e-05	2
5253	0.454254	503.803	-0.000936584	5.70679e-05	2
5266	0.460205	504.993	-0.000931091	5.68848e-05	2
5279	0.466156	506.183	-0.000921326	5.69458e-05	2
5292	0.472107	507.373	-0.00091095	5.67322e-05	2
5305	0.478058	508.564	-0.00090332	5.68542e-05	2
5318	0.484009	509.754	-0.000896912	5.69458e-05	2
5331	0.48996	510.944	-0.000888672	5.67627e-05	2
5344	0.495911	512.134	-0.00087738	5.62439e-05	2
5357	0.501862	513.324	-0.00086792	5.60608e-05	2
5370	0.5078125	514.515	-0.000860901	5.59692e-05	2
5383	0.513763	515.705	-0.000853577	5.59082e-05	2
5396	0.519714	516.895	-0.000842896	5.55115e-05	2
5409	0.525665	518.085	-0.000831909	5.49622e-05	2
5422	0.531616	519.275	-0.000823364	5.4657e-05	2
5435	0.537567	520.466	-0.000814514	5.46265e-05	2
5448	0.543518	521.656	-0.000804138	5.41687e-05	2
5461	0.549469	522.846	-0.00078949	5.37109e-05	2
5474	0.55542	524.036	-0.000778809	5.2948e-05	2
5487	0.561371	525.226	-0.000768433	5.23376e-05	2
5500	0.567322	526.416	-0.000757446	5.2063e-05	2
5513	0.573273	527.607	-0.000742493	5.12695e-05	2
5526	0.579224	528.797	-0.00072876	4.99878e-05	2
5539	0.585175	529.987	-0.000715942	4.97437e-05	2
5552	0.591125	531.177	-0.00070282	4.89197e-05	2
5565	0.597076	532.367	-0.000687866	4.83093e-05	2
5578	0.603027	533.558	-0.000670776	4.72412e-05	2
5591	0.608978	534.748	-0.000656128	4.62341e-05	2
5604	0.614929	535.938	-0.000641785	4.53186e-05	2
5617	0.62088	537.128	-0.00062439	4.42963e-05	2
5630	0.626831	538.318	-0.000605469	4.26392e-05	2
5643	0.632782	539.509	-0.000588379	4.18335e-05	2
5656	0.638733	540.699	-0.000571594	4.07318e-05	2
5669	0.644684	541.889	-0.000552063	3.93982e-05	2
5682	0.650635	543.079	-0.000530396	3.77258e-05	2
5695	0.656586	544.269	-0.000510864	3.67798e-05	2
5708	0.662537	545.459	-0.000490936	3.53394e-05	2
5721	0.668488	546.65	-0.000469055	3.38226e-05	2
5734	0.674438	547.84	-0.000445251	3.23151e-05	2
5747	0.680389	549.03	-0.000422913	3.07678e-05	2
5760	0.68634	550.22	-0.000400177	2.93213e-05	2
5773	0.692291	551.41	-0.000376923	2.77771e-05	2
5786	0.698242	552.601	-0.000351044	2.61841e-05	2
5799	0.704193	553.791	-0.000326569	2.44446e-05	2
5812	0.710144	554.981	-0.000302399	2.29919e-05	2
5825	0.716095	556.171	-0.000277771	2.13654e-05	2
5838	0.722046	557.361	-0.000251648	1.97479e-05	2
5851	0.727997	558.552	-0.000226685	1.83258e-05	2
5864	0.733948	559.742	-0.000202667	1.68884e-05	2
5877	0.739899	560.932	-0.000178253	1.54694e-05	2
5890	0.74585	562.122	-0.000153717	1.40198e-05	2
5903	0.751801	563.312	-0.000130493	1.2738e-05	2
5916	0.757751	564.503	-0.000108673	1.1618e-05	2
5929	0.763702	565.693	-8.74939e-05	1.05164e-05	2
5942	0.769653	566.883	-6.70776e-05	9.40247e-06	2
5955	0.775604	568.073	-4.84009e-05	8.46863e-06	2
5968	0.781555	569.263	-3.09845e-05	7.70569e-06	2
5981	0.787506	570.453	-1.50513e-05	6.97021e-06	2
5994	0.793457	571.644	-8.17871e-07	6.38428e-06	2
6007	0.799408	572.834	1.19049e-05	5.88379e-06	2
6020	0.805359	574.024	2.29736e-05	5.46265e-06	2
6033	0.81131	575.214	3.26843e-05	5.11169e-06	2
6046	0.817261	576.404	4.09821e-05	4.8584e-06	2
6059	0.823212	577.595	4.79126e-05	4.64478e-06	2
6072	0.829163	578.785	5.39246e-05	4.41284e-06	2
6085	0.835114	579.975	5.9021e-05	4.37622e-06	2
6098	0.841064	581.165	6.28052e-05	4.21753e-06	2
6111	0.847015	582.355	6.60706e-05	4.11987e-06	2
6124	0.852966	583.546	6.87561e-05	4.06494e-06	2
6137	0.858917	584.736	7.09229e-05	3.99475e-06	2
6150	0.864868	585.926	7.30591e-05	3.97644e-06	2
6163	0.870819	587.116	7.39136e-05	3.95508e-06	2
6176	0.87677	588.306	7.51648e-05	3.88489e-06	2
6189	0.882721	589.496	7.61414e-05	3.84827e-06	2
6202	0.888672	590.687	7.67517e-05	3.86963e-06	2
6215	0.894623	591.877	7.77283e-05	3.81775e-06	2
6228	0.900574	593.067	7.78503e-05	3.78113e-06	2
6241	0.906525	594.257	7.84302e-05	3.78113e-06	2
6254	0.912476	595.447	7.87354e-05	3.76587e-06	2
6267	0.918427	596.638	7.91931e-05	3.75366e-06	2
6280	0.924377	597.828	7.95593e-05	3.74756e-06	2
6293	0.930328	599.018	7.94373e-05	3.70483e-06	2
6306	0.936279	600.208	7.9834e-05	3.66516e-06	2
6319	0.94223	601.398	8.03223e-05	3.6438e-06	2
6332	0.948181	602.589	8.05664e-05	3.61938e-06	2
6345	0.954132	603.779	8.06274e-05	3.65601e-06	2
6358	0.960083	604.969	8.06274e-05	3.63464e-06	2
6371	0.966034	606.159	8.13293e-05	3.57666e-06	2
6384	0.971985	607.349	8.20618e-05	3.60413e-06	2
6397	0.977936	608.54	8.19092e-05	3.59192e-06	2
6410	0.983887	609.73	8.255e-05	3.51257e-06	2
6423	0.989838	610.92	8.255e-05	3.54614e-06	2
6436	0.995789	612.11	8.3313e-05	3.53088e-06	2
6449	1.00174	613.3	8.39233e-05	3.52173e-06	2
6462	1.00769	614.49	8.39233e-05	3.52478e-06	2
6475	1.01364	615.681	8.47473e-05	3.479e-06	2
6488	1.01959	616.871	8.56018e-05	3.47595e-06	2
6501	1.02554	618.061	8.63647e-05	3.42712e-06	2
6514	1.03149	619.251	8.74329e-05	3.47595e-06	2
6527	1.03745	620.441	8.80127e-05	3.44238e-06	2
6540	1.0434	621.632	8.9386e-05	3.43018e-06	2
6553	1.04935	622.822	9.07288e-05	3.41187e-06	2
6566	1.04523	624.012	-1.44043e-06	3.32642e-06	2
6579	1.03928	625.202	-1.53259e-05	3.37219e-06	2
6592	1.03333	626.392	-2.09076e-05	3.43628e-06	2
6605	1.02737	627.583	-2.63611e-05	3.38135e-06	2
6618	1.02142	628.773	-2.9599e-05	3.40881e-06	2
6631	1.01547	629.963	-3.22998e-05	3.3783e-06	2
6644	1.00952	631.153	-3.38623e-05	3.40271e-06	2
6657	1.00357	632.343	-3.5556e-05	3.43018e-06	2
6670	0.99762	633.533	-3.76129e-05	3.4729e-06	2
6683	0.991669	634.724	-3.8205e-05	3.479e-06	2
6696	0.985718	635.914	-3.91815e-05	3.45459e-06	2
6709	0.979767	637.104	-4.02496e-05	3.49731e-06	2
6722	0.973816	638.294	-4.09912e-05	3.52173e-06	2
6735	0.967865	639.484	-4.2688e-05	3.52783e-06	2
6748	0.961914	640.675	-4.33472e-05	3.51257e-06	2
6761	0.955963	641.865	-4.34753e-05	3.50647e-06	2
6774	0.950012	643.055	-4.43115e-05	3.54919e-06	2
6787	0.944061	644.245	-4.55627e-05	3.57971e-06	2
6800	0.93811	645.435	-4.62341e-05	3.55835e-06	2
6813	0.932159	646.626	-4.67834e-05	3.61633e-06	2
6826	0.926208	647.816	-4.77295e-05	3.65906e-06	2
6839	0.920258	649.006	-4.84009e-05	3.60413e-06	2
6852	0.914307	650.196	-4.93164e-05	3.6499e-06	2
6865	0.908356	651.386	-5.00793e-05	3.67126e-06	2
6878	0.902405	652.576	-5.10864e-05	3.68347e-06	2
6891	0.896454	653.767	-5.19409e-05	3.65906e-06	2
6904	0.890503	654.957	-5.2948e-05	3.71704e-06	2
6917	0.884552	656.147	-5.3894e-05	3.77502e-06	2
6930	0.878601	657.337	-5.58777e-05	3.79944e-06	2
6943	0.87265	658.527	-5.78918e-05	3.7262e-06	2
6956	0.866699	659.718	-5.9082e-05	3.79639e-06	2
6969	0.860748	660.908	-6.13403e-05	3.85437e-06	2
6982	0.854797	662.098	-6.38733e-05	3.9093e-06	2
6995	0.848846	663.288	-6.67114e-05	3.91541e-06	2
7008	0.842896	664.478	-7.00989e-05	3.94592e-06	2
7021	0.836945	665.669	-7.3822e-05	4.03442e-06	2
7034	0.830994	666.859	-7.86133e-05	4.11377e-06	2
7047	0.825043	668.049	-8.39233e-05	4.23279e-06	2
7060	0.819092	669.239	-9.08203e-05	4.35791e-06	2
7073	0.813141	670.429	-9.79614e-05	4.58984e-06	2
7086	0.80719	671.62	-0.000106415	4.87061e-06	2
7099	0.801239	672.81	-0.00011676	5.1239e-06	2
7112	0.795288	674	-0.000128723	5.53589e-06	2
7125	0.789337	675.19	-0.000141235	5.9967e-06	2
7138	0.783386	676.38	-0.000155701	6.60095e-06	2
7151	0.777435	677.57	-0.000171906	7.26929e-06	2
7164	0.771484	678.761	-0.000190186	8.08411e-06	2
7177	0.765533	679.951	-0.000210144	8.98743e-06	2
7190	0.759583	681.141	-0.000230469	9.92126e-06	2
7203	0.753632	682.331	-0.000252197	1.10626e-05	2
7216	0.747681	683.521	-0.000275513	1.23383e-05	2
7229	0.74173	684.712	-0.00030069	1.36627e-05	2
7242	0.735779	685.902	-0.000326141	1.51093e-05	2
7255	0.729828	687.092	-0.000350708	1.64642e-05	2
7268	0.723877	688.282	-0.000376465	1.80023e-05	2
7281	0.717926	689.472	-0.000403351	1.95709e-05	2
7294	0.711975	690.663	-0.000430267	2.11975e-05	2
7307	0.706024	691.853	-0.000457367	2.27966e-05	2
7320	0.700073	693.043	-0.0004823	2.4469e-05	2
7333	0.694122	694.233	-0.000508423	2.60559e-05	2
7346	0.688171	695.423	-0.000535889	2.77405e-05	2
7359	0.68222	696.613	-0.000562439	2.93335e-05	2
7372	0.67627	697.804	-0.0005859375	3.09692e-05	2
7385	0.670319	698.994	-0.000609436	3.24585e-05	2
7398	0.664368	700.184	-0.000633545	3.38196e-05	2
7411	0.658417	701.374	-0.000658569	3.57239e-05	2
7424	0.652466	702.564	-0.000682373	3.71674e-05	2
7437	0.646515	703.755	-0.000702209	3.84369e-05	2
7450	0.640564	704.945	-0.000722961	3.97491e-05	2
7463	0.634613	706.135	-0.000744324	4.08508e-05	2
7476	0.628662	707.325	-0.000766296	4.24255e-05	2
7489	0.622711	708.515	-0.000784607	4.36035e-05	2
7502	0.61676	709.706	-0.000800781	4.48364e-05	2
7515	0.610809	710.896	-0.000818481	4.5929e-05	2
7528	0.604858	712.086	-0.000836487	4.71191e-05	2
7541	0.598907	713.276	-0.000855408	4.82788e-05	2
7554	0.592957	714.466	-0.000870667	4.92554e-05	2
7567	0.587006	715.657	-0.000883179	5.00183e-05	2
7580	0.581055	716.847	-0.000897827	5.06897e-05	2
7593	0.575104	718.037	-0.000912476	5.18188e-05	2
7606	0.569153	719.227	-0.00092926	5.27344e-05	2
7619	0.563202	720.417	-0.000940552	5.34363e-05	2
7632	0.557251	721.607	-0.000950623	5.34668e-05	2
7645	0.5513	722.798	-0.000962219	5.44128e-05	2
7658	0.545349	723.988	-0.000975342	5.50232e-05	2
7671	0.539398	725.178	-0.00098877	5.57861e-05	2
7684	0.533447	726.368	-0.000997314	5.61523e-05	2
7697	0.527496	727.558	-0.00100525	5.63965e-05	2
7710	0.521545	728.749	-0.00101593	5.64575e-05	2
7723	0.515594	729.939	-0.00102692	5.72815e-05	2
7736	0.509644	731.129	-0.00103882	5.79529e-05	2
7749	0.503693	732.319	-0.00104492	5.78918e-05	2
7762	0.497742	733.509	-0.00105164	5.79529e-05	2
7775	0.491791	734.7	-0.00106171	5.84106e-05	2
7788	0.48584	735.89	-0.00107208	5.86243e-05	2
7801	0.479889	737.08	-0.00108185	5.88989e-05	2
7814	0.473938	738.27	-0.00108551	5.88684e-05	2
7827	0.467987	739.46	-0.00109283	5.88684e-05	2
7840	0.462036	740.65	-0.00110046	5.9082e-05	2
7853	0.456085	741.841	-0.00111084	5.91431e-05	2
7866	0.450134	743.031	-0.00111725	5.91431e-05	2
7879	0.444183	744.221	-0.00112061	5.86853e-05	2
7892	0.438232	745.411	-0.00112732	5.88684e-05	2
7905	0.432281	746.601	-0.00113586	5.9021e-05	2
7918	0.426331	747.792	-0.00114471	5.89294e-05	2
7931	0.42038	748.982	-0.00114899	5.87769e-05	2
7944	0.414429	750.172	-0.00115417	5.85022e-05	2
7957	0.408478	751.362	-0.00116058	5.87158e-05	2
7970	0.402527	752.552	-0.00116821	5.85327e-05	2
7983	0.396576	753.743	-0.00117493	5.82581e-05	2
7996	0.390625	754.933	-0.00117767	5.81055e-05	2
8009	0.384674	756.123	-0.00118256	5.78003e-05	2
8022	0.378723	757.313	-0.00118835	5.80139e-05	2
8035	0.372772	758.503	-0.0011969	5.77393e-05	2
8048	0.366821	759.694	-0.00120331	5.78308e-05	2
8061	0.36087	760.884	-0.00120514	5.74036e-05	2
8074	0.354919	762.074	-0.00120911	5.67932e-05	2
8087	0.348969	763.264	-0.00121582	5.69763e-05	2
8100	0.343018	764.454	-0.00122284	5.66711e-05	2
8113	0.337067	765.644	-0.00122986	5.65796e-05	2
8126	0.331116	766.835	-0.00123138	5.6427e-05	2
8139	0.325165	768.025	-0.00123566	5.59998e-05	2
8152	0.319214	769.215	-0.00124146	5.59082e-05	2
8165	0.313263	770.405	-0.00124969	5.56641e-05	2
8178	0.307312	771.595	-0.00125458	5.5603e-05	2
8191	0.301361	772.786	-0.00125519	5.48706e-05	2
8204	0.29541	773.976	-0.00125763	5.43823e-05	2
8217	0.289459	775.166	-0.00126373	5.47791e-05	2
8230	0.283508	776.356	-0.00127075	5.45959e-05	2
8243	0.277557	777.546	-0.0012738	5.44128e-05	2
8256	0.271606	778.737	-0.00127441	5.40161e-05	2
8269	0.265656	779.927	-0.00127686	5.31311e-05	2
8282	0.259705	781.117	-0.00128418	5.35889e-05	2
8295	0.253754	782.307	-0.00128906	5.34668e-05	2
8308	0.247803	783.497	-0.00129242	5.3009e-05	2
8321	0.241852	784.687	-0.00129395	5.26428e-05	2
8334	0.235901	785.878	-0.00129761	5.23987e-05	2
8347	0.22995	787.068	-0.00130402	5.23071e-05	2
8360	0.223999	788.258	-0.00130768	5.20325e-05	2
8373	0.218048	789.448	-0.00130737	5.15442e-05	2
8386	0.212097	790.638	-0.00131104	5.1239e-05	2
8399	0.206146	791.829	-0.00131561	5.11169e-05	2
8412	0.200195	793.019	-0.00132172	5.11475e-05	2
8425	0.194244	794.209	-0.00132416	5.08423e-05	2
8438	0.188293	795.399	-0.00132294	5.04456e-05	2
8451	0.182343	796.589	-0.0013269	5.02625e-05	2
8464	0.176392	797.78	-0.00133087	5.00183e-05	2
8477	0.170441	798.97	-0.00133667	4.98047e-05	2
8490	0.16449	800.16	-0.00133667	4.96826e-05	2
8503	0.158539	801.35	-0.00133728	4.89197e-05	2
8516	0.152588	802.54	-0.00134125	4.90417e-05	2
8529	0.146637	803.73	-0.00134613	4.87671e-05	2
8542	0.140686	804.921	-0.0013504	4.89197e-05	2
8555	0.134735	806.111	-0.00134949	4.88586e-05	2
8568	0.128784	807.301	-0.00135101	4.84009e-05	2
8581	0.122833	808.491	-0.00135468	4.80957e-05	2
8594	0.116882	809.681	-0.00135986	4.81567e-05	2
8607	0.110931	810.872	-0.00136383	4.80652e-05	2
8620	0.10498	812.062	-0.00136353	4.76379e-05	2
8633	0.0990295	813.252	-0.00136414	4.72107e-05	2
8646	0.0930786	814.442	-0.00136871	4.72107e-05	2
8659	0.0871277	815.632	-0.00137299	4.72717e-05	2
8672	0.0811768	816.823	-0.00137634	4.73022e-05	2
8685	0.0752258	818.013	-0.00137482	4.70276e-05	2
8698	0.0692749	819.203	-0.00137787	4.6936e-05	2
8711	0.063324	820.393	-0.00138245	4.69971e-05	2
8724	0.057373	821.583	-0.00138733	4.67224e-05	2
8737	0.0514221	822.774	-0.00138916	4.67834e-05	2
8750	0.0546265	823.964	-0.00126678	4.66003e-05	3
8763	0.0605774	825.154	-0.00124115	4.66003e-05	3
8776	0.0665283	826.344	-0.00123138	4.69971e-05	3
8789	0.0724792	827.534	-0.00122772	4.74243e-05	3
8802	0.0784302	828.724	-0.00121826	4.73938e-05	3
8815	0.0843811	829.915	-0.00121277	4.76074e-05	3
8828	0.090332	831.105	-0.00121063	4.79431e-05	3
8841	0.096283	832.295	-0.00120789	4.81873e-05	3
8854	0.102234	833.485	-0.00120514	4.85229e-05	3
8867	0.108185	834.675	-0.00119873	4.84924e-05	3
8880	0.114136	835.866	-0.00119537	4.87671e-05	3
8893	0.120087	837.056	-0.00119354	4.89502e-05	3
8906	0.126038	838.246	-0.00119141	4.94995e-05	3
8919	0.131989	839.436	-0.0011853	4.96216e-05	3
8932	0.137939	840.626	-0.00118164	4.95911e-05	3
8945	0.14389	841.817	-0.00117889	4.99878e-05	3
8958	0.149841	843.007	-0.00117645	5.02625e-05	3
8971	0.155792	844.197	-0.00117554	5.07202e-05	3
8984	0.161743	845.387	-0.00116974	5.12085e-05	3
8997	0.167694	846.577	-0.00116394	5.10254e-05	3
9010	0.173645	847.767	-0.0011615	5.1178e-05	3
9023	0.179596	848.958	-0.00116058	5.17273e-05	3
9036	0.185547	850.148	-0.00115814	5.22461e-05	3
9049	0.191498	851.338	-0.00115234	5.24292e-05	3
9062	0.197449	852.528	-0.00114685	5.23987e-05	3
9075	0.2034	853.718	-0.00114319	5.21851e-05	3
9088	0.209351	854.909	-0.00114197	5.2948e-05	3
9101	0.215302	856.099	-0.00113983	5.34058e-05	3
9114	0.221252	857.289	-0.00113312	5.35889e-05	3
9127	0.227203	858.479	-0.00112885	5.34058e-05	3
9140	0.233154	859.669	-0.00112488	5.36804e-05	3
9153	0.239105	860.86	-0.00112305	5.39856e-05	3
9166	0.245056	862.05	-0.00112091	5.46875E-05	3
9179	0.251007	863.24	-0.00111359	5.44739e-05	3
9192	0.256958	864.43	-0.00110779	5.47791e-05	3
9205	0.262909	865.62	-0.00110535	5.48706e-05	3
9218	0.26886	866.811	-0.00110291	5.5542e-05	3
9231	0.274811	868.001	-0.00109924	5.59387e-05	3
9244	0.280762	869.191	-0.00109314	5.61523e-05	3
9257	0.286713	870.381	-0.00108734	5.56946e-05	3
9270	0.292664	871.571	-0.00108429	5.63965e-05	3
9283	0.298615	872.761	-0.00108124	5.68848e-05	3
9296	0.304565	873.952	-0.00107819	5.74341e-05	3
9309	0.310516	875.142	-0.00106903	5.69763e-05	3
9322	0.316467	876.332	-0.00106415	5.74951e-05	3
9335	0.322418	877.522	-0.00106049	5.77698e-05	3
9348	0.328369	878.712	-0.00105682	5.79529e-05	3
9361	0.33432	879.903	-0.00105255	5.85327e-05	3
9374	0.340271	881.093	-0.0010437	5.85022e-05	3
9387	0.346222	882.283	-0.00103851	5.85327e-05	3
9400	0.352173	883.473	-0.00103455	5.87158e-05	3
9413	0.358124	884.663	-0.00103058	5.92957e-05	3
9426	0.364075	885.854	-0.00102539	5.96924e-05	3
9439	0.370026	887.044	-0.00101624	5.96313e-05	3
9452	0.375977	888.234	-0.00101074	5.96008e-05	3
9465	0.381927	889.424	-0.00100616	5.95093e-05	3
9478	0.387878	890.614	-0.00100281	6.01807e-05	3
9491	0.393829	891.804	-0.000995789	6.04248e-05	3
9504	0.39978	892.995	-0.000986938	6.04553e-05	3
9517	0.405731	894.185	-0.000979919	6.00891e-05	3
9530	0.411682	895.375	-0.000974121	6.02722e-05	3
9543	0.417633	896.565	-0.000970764	6.06384e-05	3
9556	0.423584	897.755	-0.000963135	6.10352e-05	3
9569	0.429535	898.946	-0.000952759	6.09436e-05	3
9582	0.435486	900.136	-0.000945435	6.03027e-05	3
9595	0.441437	901.326	-0.000939331	6.06689e-05	3
9608	0.447388	902.516	-0.000934448	6.09131e-05	3
9621	0.453339	903.706	-0.000925903	6.11267e-05	3
9634	0.45929	904.897	-0.000916138	6.06689e-05	3
9647	0.46524	906.087	-0.000907898	6.02722e-05	3
9660	0.471191	907.277	-0.000901184	6.06689e-05	3
9673	0.477142	908.467	-0.00089447	6.09131e-05	3
9686	0.483093	909.657	-0.000883484	6.06995e-05	3
9699	0.489044	910.848	-0.000873108	5.98755e-05	3
9712	0.494995	912.038	-0.000865784	5.96924e-05	3
9725	0.500946	913.228	-0.00085907	6.00586e-05	3
9738	0.506897	914.418	-0.000849304	5.9906e-05	3
9751	0.512848	915.608	-0.000838013	5.93262e-05	3
9764	0.518799	916.798	-0.000829773	5.85632e-05	3
9777	0.52475	917.989	-0.000821228	5.89294e-05	3
9790	0.530701	919.179	-0.000812378	5.88074e-05	3
9803	0.536652	920.369	-0.000799255	5.81665e-05	3
9816	0.542603	921.559	-0.000788269	5.67627e-05	3
9829	0.548553	922.749	-0.000778198	5.69763e-05	3
9842	0.554504	923.94	-0.000767822	5.65796e-05	3
9855	0.560455	925.13	-0.000754395	5.59387e-05	3
9868	0.566406	926.32	-0.000740051	5.48706e-05	3
9881	0.572357	927.51	-0.000727234	5.40771e-05	3
9894	0.578308	928.7	-0.000715332	5.32532e-05	3
9907	0.584259	929.891	-0.00070282	5.2887e-05	3
9920	0.59021	931.081	-0.000686951	5.20935e-05	3
9933	0.596161	932.271	-0.000671692	5.09949e-05	3
9946	0.602112	933.461	-0.000656738	4.98657e-05	3
9959	0.608063	934.651	-0.0006427	4.87976e-05	3
9972	0.614014	935.841	-0.000626831	4.81262e-05	3
9985	0.619965	937.032	-0.000609741	4.66309e-05	3
9998	0.625916	938.222	-0.000591736	4.55017e-05	3
10011	0.631866	939.412	-0.00057373	4.41711e-05	3
10024	0.637817	940.602	-0.00055603	4.28192e-05	3
10037	0.643768	941.792	-0.00053833	4.16229e-05	3
10050	0.649719	942.983	-0.000517578	4.02618e-05	3
10063	0.65567	944.173	-0.000497437	3.84552e-05	3
10076	0.661621	945.363	-0.000475677	3.703e-05	3
10089	0.667572	946.553	-0.000455933	3.55591e-05	3
10102	0.673523	947.743	-0.000434601	3.42957e-05	3
10115	0.679474	948.934	-0.000410309	3.24707e-05	3
10128	0.685425	950.124	-0.000387543	3.05756e-05	3
10141	0.691376	951.314	-0.000358643	2.89246e-05	3
10154	0.697327	952.504	-0.000341949	2.75604e-05	3
10167	0.703278	953.694	-0.000316742	2.59125e-05	3
10180	0.709229	954.885	-0.000291656	2.41516e-05	3
10193	0.715179	956.075	-0.000267578	2.25159e-05	3
10206	0.72113	957.265	-0.00024353	2.08649e-05	3
10219	0.727081	958.455	-0.000219543	1.94641e-05	3
10232	0.733032	959.645	-0.000195068	1.7923e-05	3
10245	0.738983	960.835	-0.000171021	1.6275e-05	3
10258	0.744934	962.026	-0.000148102	1.49017e-05	3
10271	0.750885	963.216	-0.000125916	1.37634e-05	3
10284	0.756836	964.406	-0.000103973	1.24908e-05	3
10297	0.762787	965.596	-8.33435e-05	1.1261e-05	3
10310	0.768738	966.786	-6.37512e-05	1.01898e-05	3
10323	0.774689	967.977	-4.58984e-05	9.31396e-06	3
10336	0.78064	969.167	-2.88818e-05	8.51746e-06	3
10349	0.786591	970.357	-1.32965e-05	7.74231e-06	3
10362	0.792542	971.547	3.14331e-07	7.11975e-06	3
10375	0.798492	972.737	1.2851e-05	6.604e-06	3
10388	0.804443	973.928	2.24518e-05	6.13708e-06	3
10401	0.810394	975.118	3.29041e-05	5.74951e-06	3
10414	0.816345	976.308	4.08508e-05	5.48401e-06	3
10427	0.822296	977.498	4.58679e-05	5.20935e-06	3
10440	0.828247	978.688	5.36804e-05	5.05981e-06	3
10453	0.834198	979.878	5.87769e-05	4.94995e-06	3
10466	0.840149	981.069	6.32935e-05	4.8584e-06	3
10479	0.8461	982.259	6.3446e-05	4.75769e-06	3
10492	0.852051	983.449	6.8512e-05	4.63257e-06	3
10505	0.858002	984.639	7.59888e-05	4.72107e-06	3
10518	0.863953	985.829	7.03125E-05	4.51355e-06	3
10531	0.869904	987.02	7.42493e-05	4.47388e-06	3
10544	0.875854	988.21	7.50122e-05	4.44946e-06	3
10557	0.881805	989.4	7.60498e-05	4.53186e-06	3
10570	0.887756	990.59	7.71484e-05	4.41589e-06	3
10583	0.893707	991.78	7.77283e-05	4.43726e-06	3
10596	0.899658	992.971	7.81555e-05	4.36096e-06	3
10609	0.905609	994.161	8.04749e-05	4.36096e-06	3
10622	0.91156	995.351	7.79114e-05	4.31213e-06	3
10635	0.917511	996.541	7.8064e-05	4.26941e-06	3
10648	0.923462	997.731	7.67212e-05	4.2511e-06	3
10661	0.929413	998.921	8.18787e-05	4.245e-06	3
10674	0.935364	1000.11	7.96204e-05	4.22363e-06	3
10687	0.941315	1001.3	8.00781e-05	4.19617e-06	3
10700	0.947266	1002.49	8.00781e-05	4.18091e-06	3
10713	0.953217	1003.68	8.05359e-05	4.02222e-06	3
10726	0.959167	1004.87	7.97424e-05	4.13818e-06	3
10739	0.965118	1006.06	8.255e-05	4.17786e-06	3
10752	0.971069	1007.25	8.11768e-05	4.11987e-06	3
10765	0.97702	1008.44	8.09631e-05	4.14124e-06	3
10778	0.982971	1009.63	8.21533e-05	4.0863e-06	3
10791	0.988922	1010.82	8.23059e-05	4.07104e-06	3
10804	0.994873	1012.01	8.26416e-05	4.0802e-06	3
10817	1.00082	1013.2	8.31604e-05	4.01306e-06	3
10830	1.00677	1014.39	8.36792e-05	4.02832e-06	3
10843	1.01273	1015.58	8.45032e-05	3.97339e-06	3
10856	1.01868	1016.77	8.48694e-05	3.96118e-06	3
10869	1.02463	1017.96	8.54492e-05	3.89099e-06	3
10882	1.03058	1019.15	8.64258e-05	3.91541e-06	3
10895	1.03653	1020.34	8.75549e-05	3.86658e-06	3
10908	1.04248	1021.54	8.8623e-05	3.96729e-06	3
10921	1.04843	1022.73	8.93555e-05	3.92456e-06	3
10934	1.04614	1023.92	2.35291e-06	3.86047e-06	3
10947	1.04019	1025.11	-1.39343e-05	3.92151e-06	3
10960	1.03424	1026.3	-2.00165e-05	3.9093e-06	3
10973	1.02829	1027.49	-2.59277e-05	3.88794e-06	3
10986	1.02234	1028.68	-2.90558e-05	3.92151e-06	3
10999	1.01639	1029.87	-3.15247e-05	3.93982e-06	3
11012	1.01044	1031.06	-3.36731e-05	3.93677e-06	3
11025	1.00449	1032.25	-3.51074e-05	3.93372e-06	3
11038	0.998535	1033.44	-3.65509e-05	3.95813e-06	3
11051	0.992584	1034.63	-3.77228e-05	3.95508e-06	3
11064	0.986633	1035.82	-3.88519e-05	3.96423e-06	3
11077	0.980682	1037.01	-3.99902e-05	3.95203e-06	3
11090	0.974731	1038.2	-4.0625E-05	3.97644e-06	3
11103	0.968781	1039.39	-4.14001e-05	4.06494e-06	3
11116	0.96283	1040.58	-4.21478e-05	4.05884e-06	3
11129	0.956879	1041.77	-4.30359e-05	4.05273e-06	3
11142	0.950928	1042.96	-4.39453e-05	4.09851e-06	3
11155	0.944977	1044.15	-4.44031e-05	4.10461e-06	3
11168	0.939026	1045.34	-4.52576e-05	4.12292e-06	3
11181	0.933075	1046.53	-4.60815e-05	4.15039e-06	3
11194	0.927124	1047.72	-4.66614e-05	4.1626e-06	3
11207	0.921173	1048.91	-4.77295e-05	4.22363e-06	3
11220	0.915222	1050.1	-4.84009e-05	4.22974e-06	3
11233	0.909271	1051.29	-4.93164e-05	4.29077e-06	3
11246	0.90332	1052.48	-5.0415e-05	4.20837e-06	3
11259	0.897369	1053.67	-5.17273e-05	4.22363e-06	3
11272	0.891418	1054.86	-5.22156e-05	4.30603e-06	3
11285	0.885468	1056.05	-5.38635e-05	4.2572e-06	3
11298	0.879517	1057.24	-5.52673e-05	4.34875e-06	3
11311	0.873566	1058.43	-5.70068e-05	4.39453e-06	3
11324	0.867615	1059.62	-5.89294e-05	4.39758e-06	3
11337	0.861664	1060.81	-5.9906e-05	4.40674e-06	3
11350	0.855713	1062	-6.30493e-05	4.50439e-06	3
11363	0.849762	1063.19	-6.60095e-05	4.52881e-06	3
11376	0.843811	1064.38	-6.9397e-05	4.58374e-06	3
11389	0.83786	1065.57	-7.30286e-05	4.65698e-06	3
11402	0.831909	1066.76	-7.71484e-05	4.71191e-06	3
11415	0.825958	1067.95	-8.31604e-05	4.83093e-06	3
11428	0.820007	1069.14	-8.8562e-05	4.99268e-06	3
11441	0.814056	1070.33	-9.56726e-05	5.19104e-06	3
11454	0.808105	1071.52	-0.000103455	5.39246e-06	3
11467	0.802155	1072.71	-0.000112854	5.62744e-06	3
11480	0.796204	1073.9	-0.000123596	6.14929e-06	3
11493	0.790253	1075.09	-0.000136078	6.55518e-06	3
11506	0.784302	1076.28	-0.00015036	7.15027e-06	3
11519	0.778351	1077.47	-0.000165436	7.75146e-06	3
11532	0.7724	1078.66	-0.000181976	8.52661e-06	3
11545	0.766449	1079.85	-0.000200775	9.45129e-06	3
11558	0.760498	1081.04	-0.000221954	1.04706e-05	3
11571	0.754547	1082.23	-0.00024472	1.15845e-05	3
11584	0.748596	1083.42	-0.000264893	1.27472e-05	3
11597	0.742645	1084.62	-0.000287933	1.409e-05	3
11610	0.736694	1085.81	-0.000299652	1.53076e-05	3
11623	0.730743	1087	-0.000333954	1.70624e-05	3
11636	0.724792	1088.19	-0.000363159	1.87012e-05	3
11649	0.718842	1089.38	-0.000365936	2.01019e-05	3
11662	0.712891	1090.57	-0.000427704	2.1582e-05	3
11675	0.70694	1091.76	-0.00044104	2.34436e-05	3
11688	0.700989	1092.95	-0.000467316	2.52167e-05	3
11701	0.695038	1094.14	-0.00049353	2.69806e-05	3
11714	0.689087	1095.33	-0.000517883	2.86346e-05	3
11727	0.683136	1096.52	-0.000527344	3.04535e-05	3
11740	0.677185	1097.71	-0.000567627	3.1897e-05	3
11753	0.671234	1098.9	-0.000593262	3.38104e-05	3
11766	0.665283	1100.09	-0.000618896	3.5495e-05	3
11779	0.659332	1101.28	-0.000639343	3.6972e-05	3
11792	0.653381	1102.47	-0.000661011	3.82935e-05	3
11805	0.64743	1103.66	-0.000684204	3.99963e-05	3
11818	0.641479	1104.85	-0.000707092	4.15955e-05	3
11831	0.635529	1106.04	-0.000723267	4.31824e-05	3
11844	0.629578	1107.23	-0.000743713	4.40674e-05	3
11857	0.623627	1108.42	-0.000765076	4.54102e-05	3
11870	0.617676	1109.61	-0.000784302	4.70886e-05	3
11883	0.611725	1110.8	-0.000803528	4.85229e-05	3
11896	0.605774	1111.99	-0.000820923	4.97131e-05	3
11909	0.599823	1113.18	-0.000835571	5.05371e-05	3
11922	0.593872	1114.37	-0.000851135	5.16663e-05	3
11935	0.587921	1115.56	-0.000867004	5.27954e-05	3
11948	0.58197	1116.75	-0.000883789	5.41382e-05	3
11961	0.576019	1117.94	-0.000897522	5.49316e-05	3
11974	0.570068	1119.13	-0.000908813	5.53894e-05	3
11987	0.564117	1120.32	-0.000921631	5.59998e-05	3
12000	0.558167	1121.51	-0.000930786	5.65491e-05	3
12013	0.552216	1122.7	-0.000950928	5.77698e-05	3
12026	0.546265	1123.89	-0.000958252	5.85327e-05	3
12039	0.540314	1125.08	-0.000973206	5.88074e-05	3
12052	0.534363	1126.27	-0.000982361	5.9082e-05	3
12065	0.528412	1127.46	-0.000992737	5.94482e-05	3
12078	0.522461	1128.65	-0.00100159	6.02417e-05	3
12091	0.51651	1129.84	-0.00101532	6.08826e-05	3
12104	0.510559	1131.03	-0.00102203	6.11572e-05	3
12117	0.504608	1132.22	-0.00103058	6.073e-05	3
12130	0.498657	1133.41	-0.00103882	6.073e-05	3
12143	0.492706	1134.6	-0.0010495	6.19812e-05	3
12156	0.486755	1135.79	-0.00106049	6.23779e-05	3
12169	0.480804	1136.98	-0.00106476	6.22253e-05	3
12182	0.474854	1138.17	-0.00107178	6.18286e-05	3
12195	0.468903	1139.36	-0.00108459	6.22864e-05	3
12208	0.462952	1140.55	-0.00109131	6.2561e-05	3
12221	0.457001	1141.74	-0.0010965	6.28357e-05	3
12234	0.45105	1142.93	-0.00110199	6.2439e-05	3
12247	0.445099	1144.12	-0.00110779	6.19812e-05	3
12260	0.439148	1145.31	-0.00111816	6.21948e-05	3
12273	0.433197	1146.5	-0.00112732	6.25E-05	3
12286	0.427246	1147.7	-0.00113312	6.2439e-05	3
12299	0.421295	1148.89	-0.00113647	6.21338e-05	3
12312	0.415344	1150.08	-0.00114349	6.15845e-05	3
12325	0.409393	1151.27	-0.0011496	6.19202e-05	3
12338	0.403442	1152.46	-0.00115784	6.15845e-05	3
12351	0.397491	1153.65	-0.00116119	6.19812e-05	3
12364	0.391541	1154.84	-0.00116272	6.12793e-05	3
12377	0.38559	1156.03	-0.0011734	6.10962e-05	3
12390	0.379639	1157.22	-0.00117798	6.073e-05	3
12403	0.373688	1158.41	-0.00118683	6.06079e-05	3
12416	0.367737	1159.6	-0.00119293	6.09131e-05	3
12429	0.361786	1160.79	-0.00119995	6.05469e-05	3
12442	0.355835	1161.98	-0.00120605	5.98145e-05	3
12455	0.349884	1163.17	-0.0012027	5.97229e-05	3
12468	0.343933	1164.36	-0.00121429	5.95703e-05	3
12481	0.337982	1165.55	-0.00121979	5.97839e-05	3
12494	0.332031	1166.74	-0.00122223	5.92346e-05	3
12507	0.32608	1167.93	-0.00122589	5.88074e-05	3
12520	0.320129	1169.12	-0.0012323	5.85022e-05	3
12533	0.314178	1170.31	-0.00124115	5.85327e-05	3
12546	0.308228	1171.5	-0.00124634	5.86243e-05	3
12559	0.302277	1172.69	-0.00123749	5.8197e-05	3
12572	0.296326	1173.88	-0.0012558	5.76782e-05	3
12585	0.290375	1175.07	-0.00123993	5.7373e-05	3
12598	0.284424	1176.26	-0.0012677	5.71289e-05	3
12611	0.278473	1177.45	-0.0012674	5.71289e-05	3
12624	0.272522	1178.64	-0.0012677	5.65796e-05	3
12637	0.266571	1179.83	-0.00125458	5.61829e-05	3
12650	0.26062	1181.02	-0.00128265	5.58472e-05	3
12663	0.254669	1182.21	-0.00126617	5.59387e-05	3
12676	0.248718	1183.4	-0.00129211	5.57556e-05	3
12689	0.242767	1184.59	-0.00128387	5.5542e-05	3
12702	0.236816	1185.78	-0.00127441	5.43213e-05	3
12715	0.230865	1186.97	-0.00129578	5.43213e-05	3
12728	0.224915	1188.16	-0.00130493	5.45959e-05	3
12741	0.218964	1189.35	-0.00129364	5.44128e-05	3
12754	0.213013	1190.54	-0.00130432	5.3894e-05	3
12767	0.207062	1191.73	-0.00130463	5.29175e-05	3
12780	0.201111	1192.92	-0.00130981	5.34058e-05	3
12793	0.19516	1194.11	-0.00131775	5.32837e-05	3
12806	0.189209	1195.3	-0.00130737	5.26733e-05	3
12819	0.183258	1196.49	-0.00132233	5.22461e-05	3
12832	0.177307	1197.68	-0.00132477	5.22766e-05	3
12845	0.171356	1198.87	-0.00132904	5.19409e-05	3
12858	0.165405	1200.06	-0.0013327	5.22766e-05	3
12871	0.159454	1201.25	-0.00134216	5.18188e-05	3
12884	0.153503	1202.44	-0.00133881	5.06897e-05	3
12897	0.147552	1203.63	-0.0013266	5.08423e-05	3
12910	0.141602	1204.82	-0.0013443	5.11475e-05	3
12923	0.135651	1206.01	-0.00134979	5.10559e-05	3
12936	0.1297	1207.2	-0.00135162	5.12695e-05	3
12949	0.123749	1208.39	-0.0013559	5.01099e-05	3
12962	0.117798	1209.58	-0.00134247	4.99573e-05	3
12975	0.111847	1210.78	-0.00135712	5.00183e-05	3
12988	0.105896	1211.97	-0.00135834	5.00488e-05	3
13001	0.0999451	1213.16	-0.00136047	4.99573e-05	3
13014	0.0939941	1214.35	-0.00136627	4.91028e-05	3
13027	0.0880432	1215.54	-0.00134735	4.86145e-05	3
13040	0.0820923	1216.73	-0.00137238	4.92859e-05	3
13053	0.0761414	1217.92	-0.00137726	4.93774e-05	3
13066	0.0701904	1219.11	-0.00135559	4.88892e-05	3
13079	0.0642395	1220.3	-0.00137024	4.80347e-05	3
13092	0.0582886	1221.49	-0.00137695	4.88281e-05	3
13105	0.0523376	1222.68	-0.00139069	4.83398e-05	3
13112	0.0509644	1223.32	-0.0013385	4.87061e-05	3