File: Daten/20190815_Fe_E3_ORR_bckg_after.txt
Index	Potential applied (V)	Time (s)	WE(1).Current (A)	Column 5 (V/s)	Scan	WE(1).Potential (V)
1	0.0505066	3.98667	-0.000245117	0.005	1	0.0505066
14	0.0564575	5.17686	-2.38373e-05		1	0.056488
27	0.0624084	6.36705	1.84753e-05		1	0.0621338
40	0.0683594	7.55724	3.4024e-05		1	0.0682373
53	0.0743103	8.74743	4.29474e-05		1	0.07421875
66	0.0802612	9.93762	4.84314e-05		1	0.0801086
79	0.0862122	11.1278	5.22461e-05		1	0.0860596
92	0.0921631	12.318	5.48706e-05		1	0.09198
105	0.098114	13.5082	5.70068e-05		1	0.0979309
118	0.104065	14.6984	5.88379e-05		1	0.103851
131	0.110016	15.8886	6.00586e-05		1	0.109863
144	0.115967	17.0788	6.12793e-05		1	0.115753
157	0.121918	18.2689	6.23169e-05		1	0.121674
170	0.127869	19.4591	6.30188e-05		1	0.127625
183	0.13382	20.6493	6.39954e-05		1	0.133575
196	0.139771	21.8395	6.47278e-05		1	0.139496
209	0.145721	23.0297	6.53992e-05		1	0.145477
222	0.151672	24.2199	6.61621e-05		1	0.151367
235	0.157623	25.4101	6.67419e-05		1	0.157379
248	0.163574	26.6003	6.74133e-05		1	0.163269
261	0.169525	27.7905	6.78406e-05		1	0.16925
274	0.175476	28.9806	6.84509e-05		1	0.175201
287	0.181427	30.1708	6.91833e-05		1	0.181122
300	0.187378	31.361	6.9458e-05		1	0.187012
313	0.193329	32.5512	7.01904e-05		1	0.193085
326	0.19928	33.7414	7.07092e-05		1	0.199005
339	0.205231	34.9316	7.09534e-05		1	0.204865
352	0.211182	36.1218	7.17773e-05		1	0.210815
365	0.217133	37.312	7.22046e-05		1	0.216797
378	0.223083	38.5022	7.27234e-05		1	0.222748
391	0.229034	39.6923	7.30591e-05		1	0.228638
404	0.234985	40.8825	7.36389e-05		1	0.234589
417	0.240936	42.0727	7.41882e-05		1	0.24057
430	0.246887	43.2629	7.44629e-05		1	0.24646
443	0.252838	44.4531	7.49512e-05		1	0.252441
456	0.258789	45.6433	7.547e-05		1	0.258362
469	0.26474	46.8335	7.5592e-05		1	0.264313
482	0.270691	48.0237	7.61414e-05		1	0.270233
495	0.276642	49.2139	7.66907e-05		1	0.276154
508	0.282593	50.404	7.69653e-05		1	0.282196
521	0.288544	51.5942	7.74231e-05		1	0.288055
534	0.294495	52.7844	7.77588e-05		1	0.293976
547	0.300446	53.9746	7.82471e-05		1	0.299927
560	0.306396	55.1648	7.84912e-05		1	0.305908
573	0.312347	56.355	7.89795e-05		1	0.311859
586	0.318298	57.5452	7.97119e-05		1	0.31781
599	0.324249	58.7354	7.9895e-05		1	0.323761
612	0.3302	59.9256	8.05054e-05		1	0.329681
625	0.336151	61.1157	8.09937e-05		1	0.335663
638	0.342102	62.3059	8.11768e-05		1	0.341553
651	0.348053	63.4961	8.20923e-05		1	0.347534
664	0.354004	64.6863	8.26721e-05		1	0.353516
677	0.359955	65.8765	8.32214e-05		1	0.359406
690	0.365906	67.0667	8.36487e-05		1	0.365387
703	0.371857	68.2569	8.41675e-05		1	0.371338
716	0.377808	69.4471	8.48999e-05		1	0.377289
729	0.383759	70.6373	8.52966e-05		1	0.38324
742	0.389709	71.8274	8.59375E-05		1	0.38913
755	0.39566	73.0176	8.6731e-05		1	0.395142
768	0.401611	74.2078	8.69141e-05		1	0.401031
781	0.407562	75.398	8.77686e-05		1	0.406952
794	0.413513	76.5882	8.83484e-05		1	0.412903
807	0.419464	77.7784	8.90198e-05		1	0.418793
820	0.425415	78.9686	8.97522e-05		1	0.424835
833	0.431366	80.1588	9.03931e-05		1	0.430756
846	0.437317	81.349	9.1156e-05		1	0.436707
859	0.443268	82.5391	9.16748e-05		1	0.442627
872	0.449219	83.7293	9.23157e-05		1	0.448517
885	0.45517	84.9195	9.33533e-05		1	0.454498
898	0.461121	86.1097	9.38416e-05		1	0.460388
911	0.467072	87.2999	9.48181e-05		1	0.4664
924	0.473022	88.4901	9.57336e-05		1	0.47229
937	0.478973	89.6803	9.6405e-05		1	0.478271
950	0.484924	90.8705	9.75342e-05		1	0.484222
963	0.490875	92.0607	9.84192e-05		1	0.490112
976	0.496826	93.2508	9.94263e-05		1	0.496094
989	0.502777	94.441	0.000100281		1	0.502045
1002	0.508728	95.6312	0.00010141		1	0.507935
1015	0.514679	96.8214	0.000102417		1	0.513855
1028	0.52063	98.0116	0.00010321		1	0.519867
1041	0.526581	99.2018	0.000104187		1	0.525787
1054	0.532532	100.392	0.000105225		1	0.531769
1067	0.538483	101.582	0.000105713		1	0.537689
1080	0.544434	102.772	0.000106689		1	0.543671
1093	0.550385	103.963	0.000107574		1	0.54953
1106	0.556335	105.153	0.000108124		1	0.55545
1119	0.562286	106.343	0.000108673		1	0.561462
1132	0.568237	107.533	0.000108795		1	0.567383
1145	0.574188	108.723	0.000108948		1	0.573303
1158	0.580139	109.913	0.000108673		1	0.579224
1171	0.58609	111.104	0.000108704		1	0.585175
1184	0.592041	112.294	0.000108643		1	0.591125
1197	0.597992	113.484	0.000108521		1	0.597076
1210	0.603943	114.674	0.000108917		1	0.603027
1223	0.609894	115.864	0.000109283		1	0.608948
1236	0.615845	117.055	0.000109497		1	0.614868
1249	0.621796	118.245	0.000110199		1	0.620819
1262	0.627747	119.435	0.000110748		1	0.626801
1275	0.633698	120.625	0.000110992		1	0.632751
1288	0.639648	121.815	0.000111206		1	0.638702
1301	0.645599	123.006	0.000110992		1	0.644623
1314	0.65155	124.196	0.000111084		1	0.650604
1327	0.657501	125.386	0.000110687		1	0.656555
1340	0.663452	126.576	0.000110413		1	0.662476
1353	0.669403	127.766	0.000110138		1	0.668488
1366	0.675354	128.957	0.000109314		1	0.674377
1379	0.681305	130.147	0.000108948		1	0.680359
1392	0.687256	131.337	0.000108154		1	0.68634
1405	0.693207	132.527	0.000107513		1	0.692261
1418	0.699158	133.717	0.00010672		1	0.698212
1431	0.705109	134.907	0.000105957		1	0.704163
1444	0.71106	136.098	0.000105286		1	0.710144
1457	0.71701	137.288	0.000104309		1	0.716064
1470	0.722961	138.478	0.000103394		1	0.721985
1483	0.728912	139.668	0.000102814		1	0.727966
1496	0.734863	140.858	0.000101868		1	0.733887
1509	0.740814	142.049	0.000101044		1	0.739868
1522	0.746765	143.239	0.000100342		1	0.745819
1535	0.752716	144.429	9.93347e-05		1	0.752258
1548	0.758667	145.619	9.88159e-05		1	0.757751
1561	0.764618	146.809	9.80835e-05		1	0.764465
1574	0.770569	148	9.74731e-05		1	0.769653
1587	0.77652	149.19	9.68933e-05		1	0.776062
1600	0.782471	150.38	9.63135e-05		1	0.78125
1613	0.788422	151.57	9.56726e-05		1	0.787659
1626	0.794373	152.76	9.50623e-05		1	0.793457
1639	0.800323	153.95	9.4635e-05		1	0.799561
1652	0.806274	155.141	9.42383e-05		1	0.805969
1665	0.812225	156.331	9.35364e-05		1	0.811462
1678	0.818176	157.521	9.32922e-05		1	0.817566
1691	0.824127	158.711	9.28955e-05		1	0.823059
1704	0.830078	159.901	9.22241e-05		1	0.829773
1717	0.836029	161.092	9.21936e-05		1	0.834961
1730	0.84198	162.282	9.17664e-05		1	0.840759
1743	0.847931	163.472	9.15222e-05		1	0.847473
1756	0.853882	164.662	9.1095e-05		1	0.852356
1769	0.859833	165.852	9.09729e-05		1	0.858765
1782	0.865784	167.043	9.07898e-05		1	0.865173
1795	0.871735	168.233	9.04236e-05		1	0.870972
1808	0.877686	169.423	9.03015e-05		1	0.87677
1821	0.883636	170.613	9.00879e-05		1	0.883179
1834	0.889587	171.803	8.97522e-05		1	0.888672
1847	0.895538	172.994	8.98743e-05		1	0.89447
1860	0.901489	174.184	8.984375E-05		1	0.900574
1873	0.90744	175.374	8.97217e-05		1	0.906372
1886	0.913391	176.564	8.98132e-05		1	0.913086
1899	0.919342	177.754	8.96606e-05		1	0.918274
1912	0.925293	178.944	8.984375E-05		1	0.924988
1925	0.931244	180.135	8.97827e-05		1	0.930481
1938	0.937195	181.325	8.99658e-05		1	0.93689
1951	0.943146	182.515	9.0332e-05		1	0.942078
1964	0.949097	183.705	9.03015e-05		1	0.948181
1977	0.955048	184.895	9.06372e-05		1	0.95459
1990	0.960999	186.086	9.09424e-05		1	0.960388
2003	0.966949	187.276	9.10645e-05		1	0.966187
2016	0.9729	188.466	9.17969e-05		1	0.97229
2029	0.978851	189.656	9.23462e-05		1	0.977783
2042	0.984802	190.846	9.29871e-05		1	0.984497
2055	0.990753	192.037	9.35669e-05		1	0.98999
2068	0.996704	193.227	9.42993e-05		1	0.995789
2081	1.00266	194.417	9.53064e-05		1	1.00159
2094	1.00861	195.607	9.62219e-05		1	1.00769
2107	1.01456	196.797	9.729e-05		1	1.01379
2120	1.02051	197.987	9.86633e-05		1	1.01959
2133	1.02646	199.178	9.96094e-05		1	1.02509
2146	1.03241	200.368	0.000101105		1	1.0318
2159	1.03836	201.558	0.000102417		1	1.0376
2172	1.04431	202.748	0.00010376		1	1.04309
2185	1.05026	203.938	0.000105103		1	1.0495
2198	1.04431	205.129	5.69458e-06		1	1.0434
2211	1.03836	206.319	-9.49402e-06		1	1.0379
2224	1.03241	207.509	-1.77948e-05		1	1.03149
2237	1.02646	208.699	-2.3587e-05		1	1.026
2250	1.02051	209.889	-2.78168e-05		1	1.01959
2263	1.01456	211.08	-3.10944e-05		1	1.0141
2276	1.00861	212.27	-3.36243e-05		1	1.00769
2289	1.00266	213.46	-3.56659e-05		1	1.00189
2302	0.996704	214.65	-3.75183e-05		1	0.996094
2315	0.990753	215.84	-3.90808e-05		1	0.990295
2328	0.984802	217.031	-4.01276e-05		1	0.983276
2341	0.978851	218.221	-4.15131e-05		1	0.978088
2354	0.9729	219.411	-4.24774e-05		1	0.972595
2367	0.966949	220.601	-4.33868e-05		1	0.966187
2380	0.960999	221.791	-4.44031e-05		1	0.960083
2393	0.955048	222.981	-4.51324e-05		1	0.954285
2406	0.949097	224.172	-4.59839e-05		1	0.948181
2419	0.943146	225.362	-4.67194e-05		1	0.942383
2432	0.937195	226.552	-4.82239e-05		1	0.936279
2445	0.931244	227.742	-4.83765e-05		1	0.930481
2458	0.925293	228.932	-4.88586e-05		1	0.924683
2471	0.919342	230.123	-4.97437e-05		1	0.918579
2484	0.913391	231.313	-5.04456e-05		1	0.912476
2497	0.90744	232.503	-5.10254e-05		1	0.906677
2510	0.901489	233.693	-5.2002e-05		1	0.900269
2523	0.895538	234.883	-5.27954e-05		1	0.895081
2536	0.889587	236.074	-5.35583e-05		1	0.888977
2549	0.883636	237.264	-5.44434e-05		1	0.882874
2562	0.877686	238.454	-5.50842e-05		1	0.87677
2575	0.871735	239.644	-5.60303e-05		1	0.870972
2588	0.865784	240.834	-5.68542e-05		1	0.864563
2601	0.859833	242.024	-5.77698e-05		1	0.85968
2614	0.853882	243.215	-5.86853e-05		1	0.852966
2627	0.847931	244.405	-5.93872e-05		1	0.847168
2640	0.84198	245.595	-6.05774e-05		1	0.840759
2653	0.836029	246.785	-6.14624e-05		1	0.834656
2666	0.830078	247.975	-6.24695e-05		1	0.829163
2679	0.824127	249.166	-6.35376e-05		1	0.823059
2692	0.818176	250.356	-6.45447e-05		1	0.817566
2705	0.812225	251.546	-6.56433e-05		1	0.811157
2718	0.806274	252.736	-6.66504e-05		1	0.805664
2731	0.800323	253.926	-6.77795e-05		1	0.799561
2744	0.794373	255.117	-6.90613e-05		1	0.793457
2757	0.788422	256.307	-7.00684e-05		1	0.787659
2770	0.782471	257.497	-7.13806e-05		1	0.781555
2783	0.77652	258.687	-7.24792e-05		1	0.776367
2796	0.770569	259.877	-7.34253e-05		1	0.769653
2809	0.764618	261.067	-7.49207e-05		1	0.76416
2822	0.758667	262.258	-7.61414e-05		1	0.758057
2835	0.752716	263.448	-7.74231e-05		1	0.752258
2848	0.746765	264.638	-7.87964e-05		1	0.745972
2861	0.740814	265.828	-8.00476e-05		1	0.740051
2874	0.734863	267.018	-8.12683e-05		1	0.734131
2887	0.728912	268.209	-8.2489e-05		1	0.728149
2900	0.722961	269.399	-8.39539e-05		1	0.722168
2913	0.71701	270.589	-8.52966e-05		1	0.716278
2926	0.71106	271.779	-8.63953e-05		1	0.710358
2939	0.705109	272.969	-8.79822e-05		1	0.704346
2952	0.699158	274.16	-8.92639e-05		1	0.698425
2965	0.693207	275.35	-9.0271e-05		1	0.692444
2978	0.687256	276.54	-9.19189e-05		1	0.686554
2991	0.681305	277.73	-9.31702e-05		1	0.680634
3004	0.675354	278.92	-9.46045e-05		1	0.674683
3017	0.669403	280.111	-9.58252e-05		1	0.668732
3030	0.663452	281.301	-9.72595e-05		1	0.66272
3043	0.657501	282.491	-9.84497e-05		1	0.656769
3056	0.65155	283.681	-9.95178e-05		1	0.650818
3069	0.645599	284.871	-0.000100861		1	0.644897
3082	0.639648	286.061	-0.000101837		1	0.638977
3095	0.633698	287.252	-0.000102783		1	0.632965
3108	0.627747	288.442	-0.000104034		1	0.627136
3121	0.621796	289.632	-0.000104736		1	0.621094
3134	0.615845	290.822	-0.00010553		1	0.615112
3147	0.609894	292.012	-0.000106323		1	0.609253
3160	0.603943	293.203	-0.00010675		1	0.603271
3173	0.597992	294.393	-0.000107361		1	0.597351
3186	0.592041	295.583	-0.000107727		1	0.59137
3199	0.58609	296.773	-0.000108185		1	0.585449
3212	0.580139	297.963	-0.000108459		1	0.579498
3225	0.574188	299.154	-0.000108307		1	0.573608
3238	0.568237	300.344	-0.000108734		1	0.567566
3251	0.562286	301.534	-0.000108643		1	0.561646
3264	0.556335	302.724	-0.000108429		1	0.555786
3277	0.550385	303.914	-0.000108704		1	0.549805
3290	0.544434	305.104	-0.00010849		1	0.543915
3303	0.538483	306.295	-0.000108429		1	0.537872
3316	0.532532	307.485	-0.000108154		1	0.531891
3329	0.526581	308.675	-0.000107971		1	0.526001
3342	0.52063	309.865	-0.000107849		1	0.520081
3355	0.514679	311.055	-0.000107513		1	0.51413
3368	0.508728	312.246	-0.000107513		1	0.508179
3381	0.502777	313.436	-0.0001073		1	0.502167
3394	0.496826	314.626	-0.000106689		1	0.496368
3407	0.490875	315.816	-0.000106689		1	0.490417
3420	0.484924	317.006	-0.000106415		1	0.484436
3433	0.478973	318.197	-0.000106232		1	0.478485
3446	0.473022	319.387	-0.00010611		1	0.472565
3459	0.467072	320.577	-0.000105865		1	0.466614
3472	0.461121	321.767	-0.000105621		1	0.460663
3485	0.45517	322.957	-0.000105286		1	0.454681
3498	0.449219	324.148	-0.000105316		1	0.448792
3511	0.443268	325.338	-0.000105133		1	0.442871
3524	0.437317	326.528	-0.000104858		1	0.43689
3537	0.431366	327.718	-0.000105286		1	0.430969
3550	0.425415	328.908	-0.000105682		1	0.424957
3563	0.419464	330.098	-0.000106232		1	0.419098
3576	0.413513	331.289	-0.00010733		1	0.413177
3589	0.407562	332.479	-0.000107849		1	0.407196
3602	0.401611	333.669	-0.000108429		1	0.401245
3615	0.39566	334.859	-0.000108551		1	0.395264
3628	0.389709	336.049	-0.000108826		1	0.389374
3641	0.383759	337.24	-0.000108826		1	0.383392
3654	0.377808	338.43	-0.000108765		1	0.377472
3667	0.371857	339.62	-0.000108765		1	0.371552
3680	0.365906	340.81	-0.000108734		1	0.36554
3693	0.359955	342	-0.000108185		1	0.35968
3706	0.354004	343.191	-0.000108154		1	0.353699
3719	0.348053	344.381	-0.000107819		1	0.347748
3732	0.342102	345.571	-0.000107391		1	0.341827
3745	0.336151	346.761	-0.000106934		1	0.335876
3758	0.3302	347.951	-0.000106323		1	0.329926
3771	0.324249	349.141	-0.000106049		1	0.324005
3784	0.318298	350.332	-0.000105499		1	0.318054
3797	0.312347	351.522	-0.000106201		1	0.312103
3810	0.306396	352.712	-0.000105133		1	0.306122
3823	0.300446	353.902	-0.000104584		1	0.300201
3836	0.294495	355.092	-0.000104706		1	0.29425
3849	0.288544	356.283	-0.000104462		1	0.2883
3862	0.282593	357.473	-0.000104187		1	0.282349
3875	0.276642	358.663	-0.000104309		1	0.276428
3888	0.270691	359.853	-0.000104248		1	0.270508
3901	0.26474	361.043	-0.000104126		1	0.264526
3914	0.258789	362.234	-0.000104095		1	0.258575
3927	0.252838	363.424	-0.000104034		1	0.252686
3940	0.246887	364.614	-0.000104004		1	0.246674
3953	0.240936	365.804	-0.000103882		1	0.240784
3966	0.234985	366.994	-0.000104034		1	0.234802
3979	0.229034	368.185	-0.000104126		1	0.228851
3992	0.223083	369.375	-0.00010376		1	0.222931
4005	0.217133	370.565	-0.000104095		1	0.21701
4018	0.211182	371.755	-0.000104034		1	0.21106
4031	0.205231	372.945	-0.000104095		1	0.205048
4044	0.19928	374.135	-0.000104218		1	0.199188
4057	0.193329	375.326	-0.000104218		1	0.193237
4070	0.187378	376.516	-0.00010437		1	0.187286
4083	0.181427	377.706	-0.000104279		1	0.181335
4096	0.175476	378.896	-0.000104401		1	0.175323
4109	0.169525	380.086	-0.000104614		1	0.169464
4122	0.163574	381.277	-0.000104614		1	0.163513
4135	0.157623	382.467	-0.00010495		1	0.157562
4148	0.151672	383.657	-0.000105072		1	0.151642
4161	0.145721	384.847	-0.000105011		1	0.14566
4174	0.139771	386.037	-0.00010553		1	0.139801
4187	0.13382	387.228	-0.000105774		1	0.133759
4200	0.127869	388.418	-0.000106171		1	0.127899
4213	0.121918	389.608	-0.000106628		1	0.121887
4226	0.115967	390.798	-0.000107025		1	0.115967
4239	0.110016	391.988	-0.000107452		1	0.110046
4252	0.104065	393.178	-0.00010791		1	0.104095
4265	0.098114	394.369	-0.000108704		1	0.098175
4278	0.0921631	395.559	-0.000109436		1	0.0921936
4291	0.0862122	396.749	-0.000110016		1	0.0862732
4304	0.0802612	397.939	-0.000111206		1	0.0803223
4317	0.0743103	399.129	-0.000112244		1	0.0744019
4330	0.0683594	400.32	-0.000113525		1	0.0684509
4343	0.0624084	401.51	-0.00011496		1	0.0625305
4356	0.0564575	402.7	-0.000116486		1	0.0565491
4369	0.0505066	403.89	-0.000118469		1	0.0505371
4382	0.055542	405.08	9.70459e-06		1	0.0555115
4395	0.0614929	406.271	3.25256e-05		2	0.0614319
4408	0.0674438	407.461	4.15741e-05		2	0.0673218
4421	0.0733948	408.651	4.71802e-05		2	0.0732727
4434	0.0793457	409.841	5.09338e-05		2	0.0791931
4447	0.0852966	411.031	5.3894e-05		2	0.085144
4460	0.0912476	412.221	5.59692e-05		2	0.0910645
4473	0.0971985	413.412	5.77698e-05		2	0.0970154
4486	0.103149	414.602	5.93872e-05		2	0.102997
4499	0.1091	415.792	6.03943e-05		2	0.108887
4512	0.115051	416.982	6.16455e-05		2	0.114868
4525	0.121002	418.172	6.26526e-05		2	0.120789
4538	0.126953	419.363	6.30798e-05		2	0.12677
4551	0.132904	420.553	6.427e-05		2	0.13269
4564	0.138855	421.743	6.49414e-05		2	0.13858
4577	0.144806	422.933	6.56738e-05		2	0.144531
4590	0.150757	424.123	6.62842e-05		2	0.150452
4603	0.156708	425.314	6.70776e-05		2	0.156342
4616	0.162659	426.504	6.7749e-05		2	0.162415
4629	0.16861	427.694	6.82068e-05		2	0.168365
4642	0.174561	428.884	6.87866e-05		2	0.174286
4655	0.180511	430.074	6.94275e-05		2	0.180176
4668	0.186462	431.265	6.98853e-05		2	0.186127
4681	0.192413	432.455	7.06482e-05		2	0.192078
4694	0.198364	433.645	7.12891e-05		2	0.197968
4707	0.204315	434.835	7.18079e-05		2	0.203979
4720	0.210266	436.025	7.24487e-05		2	0.2099
4733	0.216217	437.215	7.27844e-05		2	0.215881
4746	0.222168	438.406	7.34863e-05		2	0.221832
4759	0.228119	439.596	7.38525e-05		2	0.227753
4772	0.23407	440.786	7.43713e-05		2	0.233704
4785	0.240021	441.976	7.51038e-05		2	0.239624
4798	0.245972	443.166	7.53174e-05		2	0.245575
4811	0.251923	444.357	7.59583e-05		2	0.251556
4824	0.257874	445.547	7.6416e-05		2	0.257477
4837	0.263824	446.737	7.65076e-05		2	0.263367
4850	0.269775	447.927	7.73315e-05		2	0.269348
4863	0.275726	449.117	7.78198e-05		2	0.275269
4876	0.281677	450.308	7.82471e-05		2	0.281281
4889	0.287628	451.498	7.86438e-05		2	0.287201
4902	0.293579	452.688	7.901e-05		2	0.293091
4915	0.29953	453.878	7.96204e-05		2	0.299042
4928	0.305481	455.068	7.99255e-05		2	0.304993
4941	0.311432	456.258	8.04138e-05		2	0.310944
4954	0.317383	457.449	8.11157e-05		2	0.316925
4967	0.323334	458.639	8.11462e-05		2	0.322876
4980	0.329285	459.829	8.18176e-05		2	0.328827
4993	0.335236	461.019	8.22449e-05		2	0.334747
5006	0.341187	462.209	8.26416e-05		2	0.340729
5019	0.347137	463.4	8.31909e-05		2	0.346558
5032	0.353088	464.59	8.35571e-05		2	0.3526
5045	0.359039	465.78	8.40759e-05		2	0.358521
5058	0.36499	466.97	8.43811e-05		2	0.364441
5071	0.370941	468.16	8.48694e-05		2	0.370392
5084	0.376892	469.351	8.53882e-05		2	0.376373
5097	0.382843	470.541	8.56934e-05		2	0.382263
5110	0.388794	471.731	8.62732e-05		2	0.388214
5123	0.394745	472.921	8.6853e-05		2	0.394226
5136	0.400696	474.111	8.69141e-05		2	0.400055
5149	0.406647	475.302	8.77686e-05		2	0.406097
5162	0.412598	476.492	8.82568e-05		2	0.412018
5175	0.418549	477.682	8.88062e-05		2	0.417969
5188	0.4245	478.872	8.92029e-05		2	0.423859
5201	0.43045	480.062	8.99353e-05		2	0.429871
5214	0.436401	481.252	9.04846e-05		2	0.43573
5227	0.442352	482.443	9.09729e-05		2	0.441681
5240	0.448303	483.633	9.16138e-05		2	0.447632
5253	0.454254	484.823	9.24072e-05		2	0.453613
5266	0.460205	486.013	9.27124e-05		2	0.459564
5279	0.466156	487.203	9.36584e-05		2	0.465485
5292	0.472107	488.394	9.44519e-05		2	0.471436
5305	0.478058	489.584	9.51538e-05		2	0.477356
5318	0.484009	490.774	9.60388e-05		2	0.483307
5331	0.48996	491.964	9.68018e-05		2	0.489227
5344	0.495911	493.154	9.78394e-05		2	0.495178
5357	0.501862	494.345	9.86633e-05		2	0.501129
5370	0.5078125	495.535	9.9762e-05		2	0.507019
5383	0.513763	496.725	0.000100922		2	0.513
5396	0.519714	497.915	0.000101746		2	0.518951
5409	0.525665	499.105	0.000102997		2	0.524841
5422	0.531616	500.295	0.000104126		2	0.530823
5435	0.537567	501.486	0.000105011		2	0.536713
5448	0.543518	502.676	0.000106262		2	0.542694
5461	0.549469	503.866	0.000107178		2	0.548615
5474	0.55542	505.056	0.00010788		2	0.554596
5487	0.561371	506.246	0.000108276		2	0.560516
5500	0.567322	507.437	0.000108643		2	0.566498
5513	0.573273	508.627	0.000109009		2	0.572388
5526	0.579224	509.817	0.000108826		2	0.578278
5539	0.585175	511.007	0.000108887		2	0.58432
5552	0.591125	512.197	0.000108856		2	0.59021
5565	0.597076	513.388	0.000108368		2	0.5961
5578	0.603027	514.578	0.000108521		2	0.602051
5591	0.608978	515.768	0.000108582		2	0.608063
5604	0.614929	516.958	0.000108826		2	0.613983
5617	0.62088	518.148	0.0001091		2	0.619934
5630	0.626831	519.339	0.000109344		2	0.625885
5643	0.632782	520.529	0.00010965		2	0.631836
5656	0.638733	521.719	0.000109528		2	0.637756
5669	0.644684	522.909	0.000109467		2	0.643707
5682	0.650635	524.099	0.000109528		2	0.649689
5695	0.656586	525.289	0.000109131		2	0.65564
5708	0.662537	526.48	0.000108948		2	0.661591
5721	0.668488	527.67	0.000108551		2	0.667511
5734	0.674438	528.86	0.000107819		2	0.673462
5747	0.680389	530.05	0.000107391		2	0.679443
5760	0.68634	531.24	0.00010675		2	0.685425
5773	0.692291	532.431	0.000106018		2	0.691345
5786	0.698242	533.621	0.000105286		2	0.697296
5799	0.704193	534.811	0.000104401		2	0.703217
5812	0.710144	536.001	0.000103668		2	0.709198
5825	0.716095	537.191	0.000102692		2	0.715149
5838	0.722046	538.382	0.000101898		2	0.72113
5851	0.727997	539.572	0.000101105		2	0.727051
5864	0.733948	540.762	0.000100037		2	0.733032
5877	0.739899	541.952	9.93652e-05		2	0.738953
5890	0.74585	543.142	9.84802e-05		2	0.744904
5903	0.751801	544.332	9.765625E-05		2	0.750732
5916	0.757751	545.523	9.68933e-05		2	0.756836
5929	0.763702	546.713	9.60693e-05		2	0.763245
5942	0.769653	547.903	9.54895e-05		2	0.768738
5955	0.775604	549.093	9.46655e-05		2	0.774841
5968	0.781555	550.283	9.41162e-05		2	0.780945
5981	0.787506	551.474	9.35059e-05		2	0.786438
5994	0.793457	552.664	9.2865e-05		2	0.792236
6007	0.799408	553.854	9.23157e-05		2	0.798035
6020	0.805359	555.044	9.17664e-05		2	0.804443
6033	0.81131	556.234	9.10339e-05		2	0.810242
6046	0.817261	557.425	9.07898e-05		2	0.816345
6059	0.823212	558.615	9.03625e-05		2	0.822449
6072	0.829163	559.805	8.99353e-05		2	0.828552
6085	0.835114	560.995	8.95691e-05		2	0.834656
6098	0.841064	562.185	8.90198e-05		2	0.839844
6111	0.847015	563.376	8.87756e-05		2	0.846252
6124	0.852966	564.566	8.83179e-05		2	0.852051
6137	0.858917	565.756	8.80127e-05		2	0.858459
6150	0.864868	566.946	8.78601e-05		2	0.864563
6163	0.870819	568.136	8.73108e-05		2	0.869446
6176	0.87677	569.326	8.72192e-05		2	0.87616
6189	0.882721	570.517	8.69141e-05		2	0.882263
6202	0.888672	571.707	8.64258e-05		2	0.887756
6215	0.894623	572.897	8.65479e-05		2	0.894165
6228	0.900574	574.087	8.63953e-05		2	0.899658
6241	0.906525	575.277	8.62732e-05		2	0.905457
6254	0.912476	576.468	8.60596e-05		2	0.91156
6267	0.918427	577.658	8.59375E-05		2	0.917664
6280	0.924377	578.848	8.5968e-05		2	0.923767
6293	0.930328	580.038	8.58459e-05		2	0.929565
6306	0.936279	581.228	8.5907e-05		2	0.935669
6319	0.94223	582.419	8.5968e-05		2	0.941467
6332	0.948181	583.609	8.5907e-05		2	0.94696
6345	0.954132	584.799	8.61511e-05		2	0.953064
6358	0.960083	585.989	8.62427e-05		2	0.959778
6371	0.966034	587.179	8.63647e-05		2	0.965271
6384	0.971985	588.369	8.66699e-05		2	0.971375
6397	0.977936	589.56	8.69141e-05		2	0.977173
6410	0.983887	590.75	8.72803e-05		2	0.983276
6423	0.989838	591.94	8.75244e-05		2	0.98938
6436	0.995789	593.13	8.79822e-05		2	0.994873
6449	1.00174	594.32	8.85315e-05		2	1.00159
6462	1.00769	595.511	8.89587e-05		2	1.00677
6475	1.01364	596.701	8.97217e-05		2	1.01318
6488	1.01959	597.891	9.05151e-05		2	1.01898
6501	1.02554	599.081	9.1095e-05		2	1.02539
6514	1.03149	600.271	9.24072e-05		2	1.03088
6527	1.03745	601.462	9.34143e-05		2	1.03668
6540	1.0434	602.652	9.4696e-05		2	1.04218
6553	1.04935	603.842	9.59473e-05		2	1.04828
6566	1.04523	605.032	2.22198e-06		2	1.04431
6579	1.03928	606.222	-1.3382e-05		2	1.03851
6592	1.03333	607.412	-2.09808e-05		2	1.03271
6605	1.02737	608.603	-2.63489e-05		2	1.02631
6618	1.02142	609.793	-3.00903e-05		2	1.02051
6631	1.01547	610.983	-3.30688e-05		2	1.01532
6644	1.00952	612.173	-3.52753e-05		2	1.00891
6657	1.00357	613.363	-3.70117e-05		2	1.00281
6670	0.99762	614.554	-3.87421e-05		2	0.997009
6683	0.991669	615.744	-4.00208e-05		2	0.990906
6696	0.985718	616.934	-4.10004e-05		2	0.984802
6709	0.979767	618.124	-4.22729e-05		2	0.979004
6722	0.973816	619.314	-4.32037e-05		2	0.973206
6735	0.967865	620.505	-4.41345e-05		2	0.967407
6748	0.961914	621.695	-4.48151e-05		2	0.960999
6761	0.955963	622.885	-4.5636e-05		2	0.955811
6774	0.950012	624.075	-4.63989e-05		2	0.948792
6787	0.944061	625.265	-4.70764e-05		2	0.942993
6800	0.93811	626.456	-4.7879e-05		2	0.937195
6813	0.932159	627.646	-4.86755e-05		2	0.932007
6826	0.926208	628.836	-4.90723e-05		2	0.925903
6839	0.920258	630.026	-4.99268e-05		2	0.919495
6852	0.914307	631.216	-5.05371e-05		2	0.913696
6865	0.908356	632.406	-5.13e-05		2	0.907593
6878	0.902405	633.597	-5.2063e-05		2	0.901184
6891	0.896454	634.787	-5.27344e-05		2	0.896301
6904	0.890503	635.977	-5.34973e-05		2	0.889282
6917	0.884552	637.167	-5.42297e-05		2	0.883484
6930	0.878601	638.357	-5.49316e-05		2	0.877991
6943	0.87265	639.548	-5.58777e-05		2	0.871582
6956	0.866699	640.738	-5.65491e-05		2	0.866089
6969	0.860748	641.928	-5.75562e-05		2	0.859985
6982	0.854797	643.118	-5.83801e-05		2	0.853882
6995	0.848846	644.308	-5.90515e-05		2	0.848083
7008	0.842896	645.499	-6.01807e-05		2	0.841675
7021	0.836945	646.689	-6.11572e-05		2	0.836792
7034	0.830994	647.879	-6.21338e-05		2	0.830383
7047	0.825043	649.069	-6.32324e-05		2	0.82428
7060	0.819092	650.259	-6.41785e-05		2	0.818481
7073	0.813141	651.449	-6.52771e-05		2	0.812683
7086	0.80719	652.64	-6.62231e-05		2	0.806274
7099	0.801239	653.83	-6.74744e-05		2	0.800476
7112	0.795288	655.02	-6.86951e-05		2	0.794067
7125	0.789337	656.21	-6.95801e-05		2	0.788574
7138	0.783386	657.4	-7.10144e-05		2	0.782471
7151	0.777435	658.591	-7.21741e-05		2	0.776672
7164	0.771484	659.781	-7.33643e-05		2	0.771179
7177	0.765533	660.971	-7.46765e-05		2	0.764771
7190	0.759583	662.161	-7.57446e-05		2	0.758972
7203	0.753632	663.351	-7.71484e-05		2	0.753479
7216	0.747681	664.542	-7.83081e-05		2	0.746918
7229	0.74173	665.732	-7.98035e-05		2	0.740967
7242	0.735779	666.922	-8.10242e-05		2	0.735016
7255	0.729828	668.112	-8.21533e-05		2	0.729095
7268	0.723877	669.302	-8.35876e-05		2	0.723114
7281	0.717926	670.493	-8.48694e-05		2	0.717194
7294	0.711975	671.683	-8.5968e-05		2	0.711243
7307	0.706024	672.873	-8.75854e-05		2	0.705261
7320	0.700073	674.063	-8.88977e-05		2	0.699341
7333	0.694122	675.253	-9.0271e-05		2	0.693359
7346	0.688171	676.443	-9.17053e-05		2	0.687439
7359	0.68222	677.634	-9.28345e-05		2	0.681519
7372	0.67627	678.824	-9.42078e-05		2	0.675537
7385	0.670319	680.014	-9.54895e-05		2	0.669617
7398	0.664368	681.204	-9.69543e-05		2	0.663666
7411	0.658417	682.394	-9.82056e-05		2	0.657684
7424	0.652466	683.585	-9.90906e-05		2	0.651703
7437	0.646515	684.775	-0.000100586		2	0.645813
7450	0.640564	685.965	-0.000101624		2	0.639862
7463	0.634613	687.155	-0.000102386		2	0.633881
7476	0.628662	688.345	-0.00010379		2	0.62793
7489	0.622711	689.536	-0.000104492		2	0.62204
7502	0.61676	690.726	-0.000105286		2	0.616089
7515	0.610809	691.916	-0.000105896		2	0.610046
7528	0.604858	693.106	-0.000106537		2	0.604187
7541	0.598907	694.296	-0.000107208		2	0.598267
7554	0.592957	695.486	-0.000107452		2	0.592316
7567	0.587006	696.677	-0.000108002		2	0.586334
7580	0.581055	697.867	-0.000108154		2	0.580414
7593	0.575104	699.057	-0.000108185		2	0.574493
7606	0.569153	700.247	-0.000108521		2	0.568604
7619	0.563202	701.437	-0.00010849		2	0.562592
7632	0.557251	702.628	-0.000108551		2	0.55661
7645	0.5513	703.818	-0.000108582		2	0.55072
7658	0.545349	705.008	-0.000108398		2	0.544769
7671	0.539398	706.198	-0.000108276		2	0.538788
7684	0.533447	707.388	-0.00010791		2	0.532867
7697	0.527496	708.579	-0.000107941		2	0.526917
7710	0.521545	709.769	-0.000107697		2	0.520996
7723	0.515594	710.959	-0.000107239		2	0.515076
7736	0.509644	712.149	-0.000107239		2	0.509033
7749	0.503693	713.339	-0.000106995		2	0.503174
7762	0.497742	714.53	-0.000106415		2	0.497223
7775	0.491791	715.72	-0.000106476		2	0.491333
7788	0.48584	716.91	-0.000106171		2	0.485352
7801	0.479889	718.1	-0.000106049		2	0.47937
7814	0.473938	719.29	-0.000105713		2	0.473511
7827	0.467987	720.48	-0.000105621		2	0.467499
7840	0.462036	721.671	-0.000105316		2	0.461517
7853	0.456085	722.861	-0.000104919		2	0.455658
7866	0.450134	724.051	-0.000104889		2	0.449707
7879	0.444183	725.241	-0.000104828		2	0.443756
7892	0.438232	726.431	-0.000104279		2	0.437866
7905	0.432281	727.622	-0.000104553		2	0.431854
7918	0.426331	728.812	-0.000104828		2	0.425903
7931	0.42038	730.002	-0.00010553		2	0.419952
7944	0.414429	731.192	-0.000106445		2	0.414001
7957	0.408478	732.382	-0.000107147		2	0.408112
7970	0.402527	733.573	-0.00010791		2	0.402191
7983	0.396576	734.763	-0.000108215		2	0.39621
7996	0.390625	735.953	-0.000108704		2	0.390228
8009	0.384674	737.143	-0.000108673		2	0.384308
8022	0.378723	738.333	-0.000108521		2	0.378418
8035	0.372772	739.523	-0.000108704		2	0.372406
8048	0.366821	740.714	-0.00010849		2	0.366486
8061	0.36087	741.904	-0.000107971		2	0.360596
8074	0.354919	743.094	-0.000108002		2	0.354584
8087	0.348969	744.284	-0.000107574		2	0.348724
8100	0.343018	745.474	-0.000107056		2	0.342712
8113	0.337067	746.665	-0.000106415		2	0.336761
8126	0.331116	747.855	-0.000105865		2	0.330872
8139	0.325165	749.045	-0.000105438		2	0.324921
8152	0.319214	750.235	-0.00010495		2	0.319
8165	0.313263	751.425	-0.000104767		2	0.313019
8178	0.307312	752.616	-0.000104736		2	0.307007
8191	0.301361	753.806	-0.000104034		2	0.301117
8204	0.29541	754.996	-0.000104156		2	0.295166
8217	0.289459	756.186	-0.000103973		2	0.289215
8230	0.283508	757.376	-0.000103912		2	0.283264
8243	0.277557	758.566	-0.00010379		2	0.277344
8256	0.271606	759.757	-0.000103699		2	0.271393
8269	0.265656	760.947	-0.000103607		2	0.265411
8282	0.259705	762.137	-0.000103394		2	0.259521
8295	0.253754	763.327	-0.000103363		2	0.253571
8308	0.247803	764.517	-0.000103455		2	0.247559
8321	0.241852	765.708	-0.000103241		2	0.241699
8334	0.235901	766.898	-0.000103394		2	0.235748
8347	0.22995	768.088	-0.000103241		2	0.229736
8360	0.223999	769.278	-0.000102997		2	0.223877
8373	0.218048	770.468	-0.000103271		2	0.217926
8386	0.212097	771.659	-0.000103241		2	0.211975
8399	0.206146	772.849	-0.000103333		2	0.205994
8412	0.200195	774.039	-0.000103271		2	0.200104
8425	0.194244	775.229	-0.000103394		2	0.194092
8438	0.188293	776.419	-0.000103394		2	0.188202
8451	0.182343	777.61	-0.000103333		2	0.182251
8464	0.176392	778.8	-0.000103607		2	0.1763
8477	0.170441	779.99	-0.000103699		2	0.17038
8490	0.16449	781.18	-0.000103546		2	0.164398
8503	0.158539	782.37	-0.000103943		2	0.158447
8516	0.152588	783.56	-0.000104004		2	0.152557
8529	0.146637	784.751	-0.000104187		2	0.146606
8542	0.140686	785.941	-0.000104462		2	0.140656
8555	0.134735	787.131	-0.000104553		2	0.134705
8568	0.128784	788.321	-0.00010495		2	0.128754
8581	0.122833	789.511	-0.000105164		2	0.122803
8594	0.116882	790.702	-0.000105774		2	0.116852
8607	0.110931	791.892	-0.00010611		2	0.110931
8620	0.10498	793.082	-0.000106354		2	0.105011
8633	0.0990295	794.272	-0.000107178		2	0.0990295
8646	0.0930786	795.462	-0.000107697		2	0.0931091
8659	0.0871277	796.653	-0.000108276		2	0.0871582
8672	0.0811768	797.843	-0.000109406		2	0.0812378
8685	0.0752258	799.033	-0.000110352		2	0.0752563
8698	0.0692749	800.223	-0.000111511		2	0.0693359
8711	0.063324	801.413	-0.000112915		2	0.063385
8724	0.057373	802.603	-0.000114258		2	0.0574341
8737	0.0514221	803.794	-0.00011615		2	0.0515137
8750	0.0546265	804.984	4.07104e-06		2	0.054657
8763	0.0605774	806.174	3.18481e-05		3	0.0605164
8776	0.0665283	807.364	4.16351e-05		3	0.0664673
8789	0.0724792	808.554	4.71802e-05		3	0.0723572
8802	0.0784302	809.745	5.11475e-05		3	0.078186
8815	0.0843811	810.935	5.41382e-05		3	0.084259
8828	0.090332	812.125	5.62439e-05		3	0.0901794
8841	0.096283	813.315	5.80444e-05		3	0.0960999
8854	0.102234	814.505	5.94177e-05		3	0.102081
8867	0.108185	815.696	6.04248e-05		3	0.107971
8880	0.114136	816.886	6.17371e-05		3	0.113953
8893	0.120087	818.076	6.27441e-05		3	0.119843
8906	0.126038	819.266	6.35071e-05		3	0.125824
8919	0.131989	820.456	6.43921e-05		3	0.131775
8932	0.137939	821.647	6.49109e-05		3	0.137665
8945	0.14389	822.837	6.57654e-05		3	0.143646
8958	0.149841	824.027	6.62842e-05		3	0.149567
8971	0.155792	825.217	6.70471e-05		3	0.155548
8984	0.161743	826.407	6.78101e-05		3	0.16153
8997	0.167694	827.597	6.81763e-05		3	0.167419
9010	0.173645	828.788	6.89392e-05		3	0.17337
9023	0.179596	829.978	6.94275e-05		3	0.179321
9036	0.185547	831.168	6.97021e-05		3	0.185211
9049	0.191498	832.358	7.06787e-05		3	0.191193
9062	0.197449	833.548	7.1228e-05		3	0.197113
9075	0.2034	834.739	7.17773e-05		3	0.203094
9088	0.209351	835.929	7.22351e-05		3	0.208984
9101	0.215302	837.119	7.27234e-05		3	0.214966
9114	0.221252	838.309	7.34558e-05		3	0.220856
9127	0.227203	839.499	7.3822e-05		3	0.226837
9140	0.233154	840.69	7.43408e-05		3	0.232788
9153	0.239105	841.88	7.48901e-05		3	0.238739
9166	0.245056	843.07	7.51648e-05		3	0.244659
9179	0.251007	844.26	7.58667e-05		3	0.250641
9192	0.256958	845.45	7.6355e-05		3	0.256561
9205	0.262909	846.64	7.68127e-05		3	0.262512
9218	0.26886	847.831	7.73315e-05		3	0.268433
9231	0.274811	849.021	7.78198e-05		3	0.274384
9244	0.280762	850.211	7.82776e-05		3	0.280273
9257	0.286713	851.401	7.85522e-05		3	0.286224
9270	0.292664	852.591	7.9071e-05		3	0.292206
9283	0.298615	853.782	7.96814e-05		3	0.298187
9296	0.304565	854.972	7.98035e-05		3	0.304077
9309	0.310516	856.162	8.04443e-05		3	0.310028
9322	0.316467	857.352	8.11157e-05		3	0.31601
9335	0.322418	858.542	8.10852e-05		3	0.32193
9348	0.328369	859.733	8.18176e-05		3	0.327942
9361	0.33432	860.923	8.21838e-05		3	0.333801
9374	0.340271	862.113	8.26416e-05		3	0.339722
9387	0.346222	863.303	8.29773e-05		3	0.345734
9400	0.352173	864.493	8.35571e-05		3	0.351654
9413	0.358124	865.684	8.41064e-05		3	0.357635
9426	0.364075	866.874	8.43201e-05		3	0.363525
9439	0.370026	868.064	8.48083e-05		3	0.369476
9452	0.375977	869.254	8.54187e-05		3	0.375427
9465	0.381927	870.444	8.55408e-05		3	0.381378
9478	0.387878	871.634	8.61816e-05		3	0.387299
9491	0.393829	872.825	8.6731e-05		3	0.39325
9504	0.39978	874.015	8.71582e-05		3	0.3992
9517	0.405731	875.205	8.7677e-05		3	0.405151
9530	0.411682	876.395	8.80432e-05		3	0.411102
9543	0.417633	877.585	8.87146e-05		3	0.417023
9556	0.423584	878.776	8.90808e-05		3	0.422943
9569	0.429535	879.966	8.96606e-05		3	0.428894
9582	0.435486	881.156	9.03931e-05		3	0.434906
9595	0.441437	882.346	9.07288e-05		3	0.440765
9608	0.447388	883.536	9.14917e-05		3	0.446716
9621	0.453339	884.727	9.20715e-05		3	0.452698
9634	0.45929	885.917	9.23767e-05		3	0.458557
9647	0.46524	887.107	9.34448e-05		3	0.464569
9660	0.471191	888.297	9.42078e-05		3	0.47049
9673	0.477142	889.487	9.49707e-05		3	0.476532
9686	0.483093	890.677	9.56726e-05		3	0.482391
9699	0.489044	891.868	9.65271e-05		3	0.488281
9712	0.494995	893.058	9.75342e-05		3	0.494263
9725	0.500946	894.248	9.83582e-05		3	0.500122
9738	0.506897	895.438	9.94568e-05		3	0.506104
9751	0.512848	896.628	0.000100739		3	0.512085
9764	0.518799	897.819	0.00010144		3	0.518005
9777	0.52475	899.009	0.000102814		3	0.523926
9790	0.530701	900.199	0.000103912		3	0.529877
9803	0.536652	901.389	0.000105042		3	0.535858
9816	0.542603	902.579	0.000106079		3	0.541779
9829	0.548553	903.77	0.000106873		3	0.54776
9842	0.554504	904.96	0.000107574		3	0.55368
9855	0.560455	906.15	0.000107788		3	0.559601
9868	0.566406	907.34	0.00010788		3	0.565552
9881	0.572357	908.53	0.000108185		3	0.571503
9894	0.578308	909.72	0.00010791		3	0.577393
9907	0.584259	910.911	0.000107941		3	0.583344
9920	0.59021	912.101	0.000107727		3	0.589325
9933	0.596161	913.291	0.00010733		3	0.595245
9946	0.602112	914.481	0.000107635		3	0.601166
9959	0.608063	915.671	0.000107849		3	0.607117
9972	0.614014	916.862	0.000108185		3	0.613068
9985	0.619965	918.052	0.000108368		3	0.618988
9998	0.625916	919.242	0.000108765		3	0.624908
10011	0.631866	920.432	0.0001091		3	0.630951
10024	0.637817	921.622	0.0001091		3	0.636871
10037	0.643768	922.813	0.000109161		3	0.642761
10050	0.649719	924.003	0.000109222		3	0.648773
10063	0.65567	925.193	0.000108765		3	0.654755
10076	0.661621	926.383	0.000108643		3	0.660675
10089	0.667572	927.573	0.000108307		3	0.666626
10102	0.673523	928.764	0.000107758		3	0.672516
10115	0.679474	929.954	0.000107269		3	0.678497
10128	0.685425	931.144	0.000106506		3	0.684509
10141	0.691376	932.334	0.000105865		3	0.690399
10154	0.697327	933.524	0.00010495		3	0.69635
10167	0.703278	934.714	0.000104279		3	0.702362
10180	0.709229	935.905	0.000103516		3	0.708252
10193	0.715179	937.095	0.000102417		3	0.714203
10206	0.72113	938.285	0.000101685		3	0.720154
10219	0.727081	939.475	0.0001008		3	0.726105
10232	0.733032	940.665	9.95789e-05		3	0.732025
10245	0.738983	941.856	9.90295e-05		3	0.738037
10258	0.744934	943.046	9.82361e-05		3	0.743988
10271	0.750885	944.236	9.73511e-05		3	0.749939
10284	0.756836	945.426	9.66187e-05		3	0.756226
10297	0.762787	946.616	9.56421e-05		3	0.762024
10310	0.768738	947.807	9.49402e-05		3	0.768127
10323	0.774689	948.997	9.41467e-05		3	0.773926
10336	0.78064	950.187	9.35364e-05		3	0.779724
10349	0.786591	951.377	9.30176e-05		3	0.785522
10362	0.792542	952.567	9.21631e-05		3	0.791931
10375	0.798492	953.757	9.17664e-05		3	0.797424
10388	0.804443	954.948	9.11255e-05		3	0.803528
10401	0.810394	956.138	9.06067e-05		3	0.809631
10414	0.816345	957.328	9.00879e-05		3	0.81543
10427	0.822296	958.518	8.96301e-05		3	0.821533
10440	0.828247	959.708	8.92029e-05		3	0.827332
10453	0.834198	960.899	8.86536e-05		3	0.83313
10466	0.840149	962.089	8.81348e-05		3	0.839233
10479	0.8461	963.279	8.78906e-05		3	0.845337
10492	0.852051	964.469	8.74329e-05		3	0.85144
10505	0.858002	965.659	8.70972e-05		3	0.856934
10518	0.863953	966.85	8.6792e-05		3	0.863342
10531	0.869904	968.04	8.62732e-05		3	0.869141
10544	0.875854	969.23	8.61816e-05		3	0.874939
10557	0.881805	970.42	8.5907e-05		3	0.880737
10570	0.887756	971.61	8.56934e-05		3	0.887146
10583	0.893707	972.801	8.55408e-05		3	0.892944
10596	0.899658	973.991	8.52051e-05		3	0.898743
10609	0.905609	975.181	8.5083e-05		3	0.905151
10622	0.91156	976.371	8.48389e-05		3	0.910645
10635	0.917511	977.561	8.47473e-05		3	0.916748
10648	0.923462	978.751	8.47168e-05		3	0.922852
10661	0.929413	979.942	8.44421e-05		3	0.92865
10674	0.935364	981.132	8.44727e-05		3	0.934143
10687	0.941315	982.322	8.46863e-05		3	0.940552
10700	0.947266	983.512	8.43506e-05		3	0.94635
10713	0.953217	984.702	8.46252e-05		3	0.952454
10726	0.959167	985.893	8.45947e-05		3	0.958252
10739	0.965118	987.083	8.47778e-05		3	0.964355
10752	0.971069	988.273	8.48694e-05		3	0.970154
10765	0.97702	989.463	8.51135e-05		3	0.976257
10778	0.982971	990.653	8.53577e-05		3	0.98175
10791	0.988922	991.844	8.55103e-05		3	0.98877
10804	0.994873	993.034	8.59375E-05		3	0.994263
10817	1.00082	994.224	8.62427e-05		3	1.00006
10830	1.00677	995.414	8.65173e-05		3	1.00616
10843	1.01273	996.604	8.72803e-05		3	1.01196
10856	1.01868	997.794	8.79211e-05		3	1.01776
10869	1.02463	998.985	8.8623e-05		3	1.02386
10882	1.03058	1000.17	8.95386e-05		3	1.02936
10895	1.03653	1001.37	9.0332e-05		3	1.03607
10908	1.04248	1002.56	9.15222e-05		3	1.04156
10921	1.04843	1003.75	9.25903e-05		3	1.04767
10934	1.04614	1004.94	4.41589e-06		3	1.04553
10947	1.04019	1006.13	-1.37878e-05		3	1.03912
10960	1.03424	1007.32	-2.16766e-05		3	1.03363
10973	1.02829	1008.51	-2.6947e-05		3	1.02722
10986	1.02234	1009.7	-3.06e-05		3	1.02112
10999	1.01639	1010.89	-3.35083e-05		3	1.01532
11012	1.01044	1012.08	-3.58521e-05		3	1.00952
11025	1.00449	1013.27	-3.73505e-05		3	1.00372
11038	0.998535	1014.46	-3.90381e-05		3	0.99823
11051	0.992584	1015.65	-4.0329e-05		3	0.992126
11064	0.986633	1016.84	-4.14795e-05		3	0.985413
11077	0.980682	1018.03	-4.25018e-05		3	0.979919
11090	0.974731	1019.22	-4.3396e-05		3	0.973816
11103	0.968781	1020.41	-4.422e-05		3	0.968323
11116	0.96283	1021.6	-4.49463e-05		3	0.961914
11129	0.956879	1022.79	-4.56268e-05		3	0.956726
11142	0.950928	1023.98	-4.64447e-05		3	0.950012
11155	0.944977	1025.17	-4.70398e-05		3	0.944519
11168	0.939026	1026.36	-4.78394e-05		3	0.93811
11181	0.933075	1027.55	-4.85229e-05		3	0.932007
11194	0.927124	1028.74	-4.88586e-05		3	0.926819
11207	0.921173	1029.93	-4.98352e-05		3	0.92041
11220	0.915222	1031.12	-5.04456e-05		3	0.914307
11233	0.909271	1032.31	-5.1239e-05		3	0.908508
11246	0.90332	1033.5	-5.18494e-05		3	0.903015
11259	0.897369	1034.69	-5.25818e-05		3	0.896606
11272	0.891418	1035.88	-5.33142e-05		3	0.890503
11285	0.885468	1037.07	-5.39551e-05		3	0.884399
11298	0.879517	1038.26	-5.48096e-05		3	0.878601
11311	0.873566	1039.45	-5.56946e-05		3	0.872498
11324	0.867615	1040.64	-5.62134e-05		3	0.866394
11337	0.861664	1041.83	-5.72815e-05		3	0.860596
11350	0.855713	1043.02	-5.80444e-05		3	0.854492
11363	0.849762	1044.21	-5.89294e-05		3	0.848389
11376	0.843811	1045.4	-5.99365e-05		3	0.842896
11389	0.83786	1046.59	-6.06995e-05		3	0.837097
11402	0.831909	1047.78	-6.17676e-05		3	0.830994
11415	0.825958	1048.97	-6.27136e-05		3	0.8255
11428	0.820007	1050.16	-6.38733e-05		3	0.819092
11441	0.814056	1051.35	-6.48499e-05		3	0.812683
11454	0.808105	1052.54	-6.57349e-05		3	0.806885
11467	0.802155	1053.73	-6.70471e-05		3	0.801086
11480	0.796204	1054.92	-6.80847e-05		3	0.795288
11493	0.790253	1056.11	-6.90918e-05		3	0.789185
11506	0.784302	1057.3	-7.06177e-05		3	0.783386
11519	0.778351	1058.49	-7.17163e-05		3	0.777893
11532	0.7724	1059.68	-7.2998e-05		3	0.771179
11545	0.766449	1060.87	-7.43408e-05		3	0.765991
11558	0.760498	1062.06	-7.53784e-05		3	0.759583
11571	0.754547	1063.25	-7.67517e-05		3	0.754089
11584	0.748596	1064.45	-7.79724e-05		3	0.747864
11597	0.742645	1065.64	-7.93762e-05		3	0.741882
11610	0.736694	1066.83	-8.07495e-05		3	0.735931
11623	0.730743	1068.02	-8.17871e-05		3	0.730042
11636	0.724792	1069.21	-8.32825e-05		3	0.72406
11649	0.718842	1070.4	-8.45947e-05		3	0.71814
11662	0.712891	1071.59	-8.59375E-05		3	0.712128
11675	0.70694	1072.78	-8.73718e-05		3	0.706177
11688	0.700989	1073.97	-8.8623e-05		3	0.700256
11701	0.695038	1075.16	-9.00269e-05		3	0.694336
11714	0.689087	1076.35	-9.12476e-05		3	0.688324
11727	0.683136	1077.54	-9.25598e-05		3	0.682434
11740	0.677185	1078.73	-9.39941e-05		3	0.676422
11753	0.671234	1079.92	-9.51843e-05		3	0.670471
11766	0.665283	1081.11	-9.66492e-05		3	0.664551
11779	0.659332	1082.3	-9.78394e-05		3	0.658569
11792	0.653381	1083.49	-9.88464e-05		3	0.65271
11805	0.64743	1084.68	-0.000100281		3	0.646729
11818	0.641479	1085.87	-0.000101379		3	0.640686
11831	0.635529	1087.06	-0.000102478		3	0.634796
11844	0.629578	1088.25	-0.000103638		3	0.628876
11857	0.623627	1089.44	-0.00010437		3	0.622894
11870	0.617676	1090.63	-0.000105133		3	0.617004
11883	0.611725	1091.82	-0.000105743		3	0.611053
11896	0.605774	1093.01	-0.000106537		3	0.605072
11909	0.599823	1094.2	-0.000107117		3	0.599213
11922	0.593872	1095.39	-0.000107208		3	0.593201
11935	0.587921	1096.58	-0.00010791		3	0.58725
11948	0.58197	1097.77	-0.000108124		3	0.581299
11961	0.576019	1098.96	-0.000108002		3	0.575409
11974	0.570068	1100.15	-0.000108429		3	0.569458
11987	0.564117	1101.34	-0.000108368		3	0.563538
12000	0.558167	1102.53	-0.000108429		3	0.557556
12013	0.552216	1103.72	-0.000108276		3	0.551666
12026	0.546265	1104.91	-0.000108368		3	0.545654
12039	0.540314	1106.1	-0.000108185		3	0.539734
12052	0.534363	1107.29	-0.000107819		3	0.533783
12065	0.528412	1108.48	-0.000107819		3	0.527832
12078	0.522461	1109.67	-0.000107513		3	0.521942
12091	0.51651	1110.86	-0.000107086		3	0.515961
12104	0.510559	1112.05	-0.000107117		3	0.51004
12117	0.504608	1113.24	-0.000106873		3	0.504089
12130	0.498657	1114.43	-0.000106628		3	0.498108
12143	0.492706	1115.62	-0.000106476		3	0.492218
12156	0.486755	1116.81	-0.000106018		3	0.486237
12169	0.480804	1118	-0.000105927		3	0.480316
12182	0.474854	1119.19	-0.00010553		3	0.474426
12195	0.468903	1120.38	-0.000105499		3	0.468475
12208	0.462952	1121.57	-0.000105225		3	0.462494
12221	0.457001	1122.76	-0.000104706		3	0.456543
12234	0.45105	1123.95	-0.000104706		3	0.450592
12247	0.445099	1125.14	-0.000104401		3	0.444702
12260	0.439148	1126.33	-0.000103973		3	0.43869
12273	0.433197	1127.53	-0.000104248		3	0.43277
12286	0.427246	1128.72	-0.000104218		3	0.426819
12299	0.421295	1129.91	-0.000104706		3	0.420868
12312	0.415344	1131.1	-0.000105408		3	0.414978
12325	0.409393	1132.29	-0.000106415		3	0.409027
12338	0.403442	1133.48	-0.00010733		3	0.402985
12351	0.397491	1134.67	-0.000107819		3	0.397125
12364	0.391541	1135.86	-0.000108307		3	0.391144
12377	0.38559	1137.05	-0.000108582		3	0.385284
12390	0.379639	1138.24	-0.000108337		3	0.379333
12403	0.373688	1139.43	-0.000108521		3	0.373352
12416	0.367737	1140.62	-0.000108337		3	0.367401
12429	0.361786	1141.81	-0.000108215		3	0.36142
12442	0.355835	1143	-0.000107941		3	0.355591
12455	0.349884	1144.19	-0.000107452		3	0.349579
12468	0.343933	1145.38	-0.000106964		3	0.343658
12481	0.337982	1146.57	-0.000106171		3	0.337677
12494	0.332031	1147.76	-0.000105804		3	0.331757
12507	0.32608	1148.95	-0.000105255		3	0.325775
12520	0.320129	1150.14	-0.000104645		3	0.319824
12533	0.314178	1151.33	-0.000104553		3	0.313904
12546	0.308228	1152.52	-0.000104309		3	0.307953
12559	0.302277	1153.71	-0.000103638		3	0.301971
12572	0.296326	1154.9	-0.00010379		3	0.296082
12585	0.290375	1156.09	-0.000103607		3	0.290131
12598	0.284424	1157.28	-0.000103577		3	0.284241
12611	0.278473	1158.47	-0.000103333		3	0.278259
12624	0.272522	1159.66	-0.000103363		3	0.272308
12637	0.266571	1160.85	-0.00010321		3	0.266357
12650	0.26062	1162.04	-0.000102997		3	0.260406
12663	0.254669	1163.23	-0.000103058		3	0.254486
12676	0.248718	1164.42	-0.000103088		3	0.248535
12689	0.242767	1165.61	-0.000102692		3	0.242584
12702	0.236816	1166.8	-0.000102905		3	0.236633
12715	0.230865	1167.99	-0.000102814		3	0.230682
12728	0.224915	1169.18	-0.000102814		3	0.224762
12741	0.218964	1170.37	-0.000102814		3	0.218872
12754	0.213013	1171.56	-0.000102692		3	0.212921
12767	0.207062	1172.75	-0.000102753		3	0.20697
12780	0.201111	1173.94	-0.000102722		3	0.200989
12793	0.19516	1175.13	-0.000102905		3	0.195068
12806	0.189209	1176.32	-0.000102905		3	0.189087
12819	0.183258	1177.51	-0.000102661		3	0.183167
12832	0.177307	1178.7	-0.000102966		3	0.177246
12845	0.171356	1179.89	-0.000102875		3	0.171265
12858	0.165405	1181.08	-0.000102814		3	0.165344
12871	0.159454	1182.27	-0.00010318		3	0.159393
12884	0.153503	1183.46	-0.000103271		3	0.153473
12897	0.147552	1184.65	-0.000103424		3	0.147583
12910	0.141602	1185.84	-0.000103546		3	0.141541
12923	0.135651	1187.03	-0.000103699		3	0.13562
12936	0.1297	1188.22	-0.000104095		3	0.12973
12949	0.123749	1189.41	-0.000104279		3	0.123779
12962	0.117798	1190.61	-0.000104767		3	0.117767
12975	0.111847	1191.8	-0.000105164		3	0.111847
12988	0.105896	1192.99	-0.000105347		3	0.105896
13001	0.0999451	1194.18	-0.00010611		3	0.100006
13014	0.0939941	1195.37	-0.000106598		3	0.0939636
13027	0.0880432	1196.56	-0.00010733		3	0.0881042
13040	0.0820923	1197.75	-0.000108154		3	0.0821838
13053	0.0761414	1198.94	-0.000109009		3	0.0762329
13066	0.0701904	1200.13	-0.000110077		3	0.0702515
13079	0.0642395	1201.32	-0.000111145		3	0.0643616
13092	0.0582886	1202.51	-0.00011261		3	0.0583496
13105	0.0523376	1203.7	-0.00011441		3	0.0524597
13118	0.0537109	1204.89	-4.6936e-06		3	0.0536499
13131	0.0596619	1206.08	3.07312e-05		3	0.0596008
13132	0.0601196	1206.17	3.19122e-05		3	0.0600586